Folder: zeosyn_dataset/KFI-RHO-LTA-UFI_paper/dependence_plot_data (part 4)

File: UFI_H2OSi.csv
H$_2$O/Si,SHAP value
0.0,-0.000318155
0.0,-0.000580531
0.0,-0.000419831
0.0,-0.000226431
0.0,-0.000403541
0.0,-0.00026552
0.0,-0.000805554
0.0,-0.000244369
0.0,-0.000381556
0.0,-0.00030676
0.0,-0.000306455
0.0,-0.000386123
0.0,-0.000467633
0.0,-0.000327367
0.388889,-0.000361955
1.0,-0.000235445
1.80072,-0.000286104
2.04082,-0.00023358
2.13333,-0.000227796
2.5,-0.00034773
2.85714,-0.000351883
3.0,-0.000237863
3.06,-0.000280495
3.29997,-0.000340518
3.3,-0.000374167
3.75,-0.000217844
4.21053,-0.000384419
4.54545,-0.000230676
4.54545,-0.000225925
4.74716,-0.000453613
4.78723,-0.00034407
4.89362,-0.00034306
5,-0.000945656
5,-0.000286462
5,-0.00148654
5,-0.000367022
5.0,-0.000744278
5.0,-0.00135552
5,-0.00034186
5,-0.000252086
5,-0.000306412
5.01667,-0.00063958
5.17857,-0.000360773
5.33333,-0.000240278
5.6,-0.00158047
5.9727,-0.000251696
6.25,-0.000200284
6.66667,-0.000214669
7,-0.0015183
7.0,-0.00151414
7,-0.000230539
7.25,-0.000280158
7.5,-0.000974892
7.69992,-0.000465533
7.69992,-0.000235441
8.16667,-0.000948472
8.75,-0.000306359
9.0,-0.000254582
9.5,-0.000311127
9.82,-0.00206018
10,-0.000258278
10.0,-0.000282735
10.0,-0.000315272
10.0,-0.000285362
10.0,-0.000256876
10.0,-0.000164117
10.0,-0.000268059
10.0,-0.000285362
10,-0.000244449
10,-0.000379611
10.5042,-0.000178835
10.6061,-0.000305258
10.6667,-0.000184092
10.673,-0.000213013
11.0,-0.000297541
11.3,-0.000194284
11.6,-0.000206676
11.9585,-0.000425598
12.3457,-0.000166302
12.6875,-0.000861235
13,-0.00152173
13.5,-0.000385024
13.6459,-0.000149696
14,-0.000212076
14.0,-0.000243447
14.0,-0.00109397
14.7059,-0.000218494
15,-0.000971356
15,-0.00142719
15,-0.00131742
15,-0.000382378
15,-0.000878194
15.0,-0.000135886
15.0,-0.000338117
15.0,-0.000387934
15.0,-0.00020789
15.0,-0.000366271
15,-0.00149367
15,-0.000490582
15,-0.000381917
15.5,-0.000293475
15.8,-0.00038363
16.0,-0.000260737
16,-0.000223404
16.4998,-0.000188772
16.4998,-0.000403522
16.6667,-9.71196e-05
16.6667,-0.000230699
16.6667,-0.000136041
17.5,-0.000133213
18.0,-0.000141033
19.2,-1.93651e-06
19.5,-1.33614e-05
19.5,-2.40026e-05
20,7.33486e-05
20,-6.8516e-05
20,1.78641e-06
20,-0.000111483
20,1.58415e-05
20.0,0.000695328
20.0,-3.64237e-05
20.0,-1.82972e-05
20.0,3.14741e-05
20.0,-9.37863e-05
20,-4.66103e-05
20,5.88028e-05
20,0.000258058
20.4,0.000107194
21,-1.37781e-05
21.135,1.36087e-05
22,-0.00129053
22.5,-0.000625698
22.7273,9.10295e-05
23.5189,0.000242425
23.8095,0.00031793
24.434,0.000439914
25,0.00038291
25,0.000466282
25.0,0.000577072
25,0.000312417
26.0,0.00132065
27,0.00038878
27.9444,0.000469819
28,0.00131981
30,0.000925869
30,0.00142449
30,0.00102286
30,0.000860634
30,0.000735882
30,0.000849133
30,0.000813308
30,0.000936652
30,0.000594852
30,0.000778136
30,0.000740412
30.0,0.000718966
30.0,0.000577805
30.0,0.000523889
30.0,0.00054516
30.0,0.000831009
30.0,0.0016323
30.0,0.000773529
30,0.000634893
30,0.00390379
30,0.000845416
30,0.00134413
30,0.00064753
30,0.000862077
30,0.000560057
30,0.000709663
30,0.000519179
30.45,0.000888284
31,0.000717829
31.2,0.0013485
33.2,0.000497629
35,0.000257296
35,0.000347883
35,0.000243695
35,0.000238296
35.0,0.000302952
35.0,0.000283221
35,0.000492636
35.04,0.000282565
35.5625,0.000331409
36,0.000246892
36.7816,0.00024074
37.182,0.00022814
37.8788,0.000108179
38.0711,0.000137513
38.6287,7.99419e-05
40,0.000124346
40,0.000288606
40,0.000120695
40,7.88641e-05
40,0.000105584
40,0.000153121
40.0,0.000107437
40.0,0.000197634
40.0,0.000107437
40.0,0.000128552
40.0,-8.13145e-05
40.0,0.000117019
40.0,3.66581e-05
40.0,8.98957e-05
40.0,-0.000103966
40.0,0.000126317
40,9.75894e-05
40,0.000116173
40,9.75989e-05
40,-0.000159483
40,9.57657e-05
40,0.000117678
40,0.000103076
40,0.000123303
40,9.45265e-05
40,0.000104792
40.3297,7.91321e-05
40.8889,0.00012565
41.5,0.000226245
42,6.30274e-05
42,9.88057e-05
42.0,5.17699e-05
42.3077,0.000146376
43.5714,2.64961e-06
43.7584,0.000206201
43.7584,0.000186115
44,5.78713e-05
44.0,8.69784e-05
44,0.000120552
45,0.000172822
45.0,0.00015951
45.0,0.000223839
45,8.27238e-05
45,4.90665e-05
45.4545,0.000113157
45.4545,2.21403e-05
45.72,9.98827e-05
47,0.000148356
50,8.47074e-05
50,6.04815e-05
50,9.73178e-05
50,6.37252e-05
54,0.000108396
57,-1.68733e-05
58.6538,-5.91077e-05
60,4.70042e-05
60,2.79943e-05
60,2.82766e-05
64,4.39162e-07
68.8119,-4.9259e-05
76.9231,-6.6509e-05
84,-9.56303e-06
95,-4.50742e-05
100,2.26364e-05
100.0,-0.000102151
100.0,6.45869e-06
100,2.64207e-05
108.824,-0.000210414
120.0,8.52838e-05
136.25,-5.81048e-05
174.0,-0.000115454
200.0,9.07504e-06
250,4.34191e-05
410,-3.65574e-05
714.286,-0.000183228

File: UFI_NaSi.csv
Na/Si,SHAP value
0.0,0.000463792
0.0,0.000104608
0.0,0.000463792
0.0,7.27802e-05
0.0,0.00013357
0.0,0.0107492
0.0,9.59724e-05
0.0,0.000108543
0.0,0.000106309
0.0,4.23859e-05
0.0,0.000230288
0.0,0.000118459
0.0,-0.00133012
0.0,9.55434e-05
0.0,0.000223278
0.0,0.000728511
0.0,0.000107533
0.0,0.000101916
0.0,0.000119337
0.0,0.000135688
0.0,0.000133092
0.0,7.60477e-05
0.0,0.000163739
0.0,6.85797e-05
0.0,0.00514873
0.0,0.000131202
0.0,0.000368271
0.0,6.8574e-05
0.0,0.000123185
0.0,8.13978e-05
0.0,0.00021043
0.0,5.17649e-05
0.0,0.000122794
0.0,0.000126395
0.0,8.76191e-05
0.0,7.48057e-05
0.0,7.18689e-05
0.0,2.85653e-05
0.0,0.000625838
0.0,3.52394e-05
0.0,-0.0027675
0.0,0.000107627
0.0,0.000232142
0.0,8.56778e-05
0.0,7.44047e-05
0.0,3.67798e-05
0.0,0.000182421
0.0,0.000125412
0.0,0.000111392
0.0,0.000119359
0.0,6.62794e-05
0.0,-0.00162609
0.0,0.000136177
0.0,0.000109891
0.0,0.000358763
0.0,9.46749e-05
0.0,0.000136238
0.0,5.79277e-05
0.0,0.000128573
0.0,0.000183182
0.0,0.0010415
0.0,4.4521e-05
0.0,7.67669e-05
0.0,6.74282e-05
0.0,6.39951e-05
0.0,0.000154035
0.0,0.00027113
0.0,4.37968e-05
0.0,8.88566e-05
0.0,6.47377e-05
0.0,3.52441e-05
0.0,0.000166858
0.0,0.000100157
0.0,2.76161e-05
0.0,7.34048e-05
0.0,0.000342236
0.0,0.00013761
0.0,9.42996e-05
0.0,0.000218072
0.0,0.00027113
0.0,0.0002021
0.0,0.000159153
0.0,0.000190213
0.0,0.000136351
0.0,6.6446e-05
0.0,0.000169399
0.0,9.4702e-05
0.0,0.000133674
0.0,0.000203449
0.0,0.00013571
0.0,9.95111e-05
0.0,0.000215017
0.0,0.000101863
0.0,0.000204065
0.0,0.000160129
0.0,0.000269517
0.0,0.000382205
0.0,0.000212675
0.0,6.93813e-05
0.0,0.000180502
0.0,0.000190213
0.0,9.29623e-05
0.0,9.22851e-05
0.0,0.000177491
0.0,7.89513e-05
0.0,0.000160172
0.0,0.000128749
0.0,0.000101217
0.0005,0.000171603
0.008,0.000208366
0.0125,0.000164541
0.0181818,0.000192927
0.02,0.000192973
0.02,0.000420801
0.0220513,8.45167e-05
0.0243333,0.000265626
0.025,0.0001385
0.028,0.000109703
0.03,9.11335e-05
0.03,0.000368949
0.03,5.28246e-05
0.0334,0.00010731
0.04,0.000424179
0.048,0.000445821
0.05,0.000301798
0.05,-0.000754704
0.05,0.00034621
0.06,0.000513612
0.06,0.000445665
0.0625,-0.00174267
0.0638298,0.000198922
0.0666667,0.000149282
0.0711111,0.00103343
0.075,0.000485087
0.08,-0.000135137
0.08,0.000522286
0.08,0.000372159
0.083,0.000422166
0.09,0.000446619
0.09,0.000498915
0.1,0.000291819
0.1,0.000159327
0.1,0.000166875
0.1,0.00108512
0.1,0.000108504
0.1,9.96523e-05
0.1,6.54173e-05
0.1,0.000217859
0.1,0.000221304
0.1,0.000285079
0.1,8.37346e-05
0.100671,0.000224163
0.100671,0.000238035
0.101299,0.000143069
0.11,0.000365995
0.11,0.00017116
0.11,0.000458748
0.113208,0.000979319
0.117647,0.000931919
0.12,0.000157991
0.12,0.000645501
0.133333,5.63244e-05
0.136364,0.000603193
0.14,0.000301245
0.15,0.000353569
0.15,-9.05956e-06
0.16,5.66501e-05
0.16,-4.61301e-05
0.17,0.000222321
0.18,0.000242356
0.18,0.000148427
0.18,-1.38931e-05
0.18,5.69218e-05
0.185,-3.00623e-05
0.2,-0.000243875
0.2,0.00011544
0.2,-1.72893e-05
0.2,0.000137817
0.2,-5.90465e-06
0.2,0.000285674
0.2,-3.72395e-05
0.2,7.96687e-05
0.2,2.69662e-06
0.2,0.000490475
0.21,-0.000184477
0.22,-2.78751e-05
0.22,-1.80613e-05
0.232,3.16535e-05
0.24,-1.21766e-05
0.246,-9.76265e-06
0.25,-0.00021179
0.25,-0.000142017
0.26,-0.000221336
0.276923,-0.000156869
0.28,-0.00140798
0.29697,-0.000226289
0.3,-0.00147915
0.3,-0.000603718
0.3,-0.000175761
0.3,-0.000254813
0.3,-0.000245172
0.3,-9.5816e-05
0.3,-0.000470447
0.32,-0.000228572
0.33,-0.000201001
0.333333,-0.000188361
0.333333,-0.000180131
0.35,-0.000271271
0.36,-0.000357032
0.361702,-0.000348154
0.379939,-0.000298086
0.38,-0.00020825
0.4,-0.000289833
0.404959,-0.00021924
0.42,-0.000278312
0.42,-0.000389868
0.46,-0.00049518
0.466,-0.000287253
0.47,-0.000252061
0.47,-0.000269022
0.472727,-0.000494096
0.48,-0.000245265
0.485437,-0.000320797
0.5,-0.000291513
0.5,-0.0010475
0.52,-0.000452318
0.524843,-0.000204487
0.527778,-0.0110452
0.529,-0.000465909
0.533333,-0.00028178
0.54,-0.000256467
0.542005,-0.000327573
0.5559,-0.000428087
0.565789,-0.000646443
0.574713,-0.000448165
0.58,-0.000472482
0.6,-0.000284362
0.6,-0.000246704
0.6,-0.000462783
0.6,-0.000386005
0.6,-0.000305462
0.6,-0.000248853
0.6,-0.000348258
0.6,-0.000283742
0.6,-0.000241888
0.6,-0.000286441
0.6269,-0.00028256
0.64,-0.000398362
0.64,-0.000326204
0.6609,-0.000249846
0.7,-0.000325039
0.7,-0.000236828
0.716763,-0.00031721
0.73,-0.000298495
0.73,-0.00030528
0.73,-0.000358466
0.77037,-0.000361601
0.8,-0.000266102
0.8,-0.000355436
0.8,-0.000418166
0.833333,-0.000499396
0.87,-0.000273848
0.88,-0.000304594
0.92,-0.000478992
0.967742,-0.000649662

File: UFI_OHSi.csv
OH/Si,SHAP value
0.0,-0.000379233
0.0,-0.000590023
0.0,-0.000416473
0.0,-0.000506105
0.0,-0.000535587
0.0,-0.000926062
0.0,-0.00132183
0.0,-0.000400345
0.0,-0.000481235
0.0,-0.000853468
0.0,-0.000329061
0.0,-0.000944016
0.0,-0.000649269
0.0,-0.000835517
0.0,-0.000421023
0.0,-0.000430028
0.0,-0.000673846
0.0,-0.000407665
0.0,-0.000472226
0.0,-0.000669963
0.0,-0.000527081
0.0,-0.000206747
0.0,-0.000412542
0.0,-0.000672132
0.0,-0.000351805
0.0,-0.00051434
0.0,-0.000346242
0.0,-0.000506417
0.0,-0.000443775
0.0,-0.000863116
0.0,-0.000395516
0.0,-0.001125
0.0,-0.000318508
0.0,-0.000453864
0.0,-0.000510238
0.0,-0.000388435
0.0,-0.00037756
0.0,-0.000512626
0.0,-0.000409254
0.0,-0.000366818
0.0,-0.000486327
0.0,-0.000327117
0.0,-0.000414993
0.0,-0.00138491
0.0,-0.000751395
0.0,-0.00052162
0.0,-0.000315506
0.0,-0.000336222
0.0,-0.000564901
0.0,-0.000321138
0.0,-0.000672132
0.0,-0.00044043
0.0,-0.000809401
0.0,-0.000339973
0.0,-0.000528138
0.0,-0.000757396
0.0,-0.000576182
0.0,-0.000427703
0.0,-0.000647267
0.00260833,-0.000431316
0.016,-0.000463675
0.02,-0.000274685
0.024,-0.000393254
0.024,-0.000468365
0.0313,-0.000482895
0.036,-0.000566659
0.04,-0.0018882
0.04,-0.000329683
0.0420875,-0.000426312
0.048,-0.000229237
0.048,-0.000193782
0.05,-0.00035198
0.056,-0.000424457
0.060024,-0.000418789
0.064,-0.000107713
0.0664,-0.000110895
0.07,-0.000405265
0.072,-0.000167244
0.075,-0.000347902
0.08,-0.000823744
0.08,-0.000393395
0.088,-0.000280329
0.088,-0.000276592
0.088,-0.00078874
0.088,-0.000353767
0.0933333,-0.000516132
0.096,-0.000198808
0.1,-0.000653991
0.1,-0.000653991
0.1,-0.000693714
0.11039,8.63248e-05
0.112,-0.000106975
0.12,-0.000218
0.12,-0.000555175
0.125,-0.00194873
0.133333,-0.000167453
0.142857,-0.000453634
0.144,-0.000171711
0.144,6.64662e-05
0.144,-0.000236625
0.148,-0.000171781
0.15,-0.00141293
0.152,-7.7778e-05
0.16,-0.000403181
0.16,-0.000226269
0.16,-0.000408125
0.16,-6.15418e-05
0.16,-0.00126035
0.166667,-0.000449216
0.172,-0.000465283
0.176,-0.000291088
0.178,-0.000334108
0.18,-0.000179542
0.18,-2.60469e-05
0.183908,-0.000297175
0.189394,-0.000258738
0.191667,-0.000733617
0.192,-0.000159613
0.2,-0.000407699
0.2,-0.000605167
0.2,-0.000293356
0.2,-0.000364652
0.2,-0.000683412
0.2,-0.000297956
0.2,-0.00028915
0.2,-0.000284143
0.2,-0.000427865
0.2,-0.00300757
0.2,-0.000532835
0.2,-0.000298376
0.2,-0.000798152
0.2,-0.000805209
0.21,-0.00029889
0.22,-0.00123309
0.228,-0.000214731
0.24,-0.000542858
0.24,-0.000266034
0.24,-0.000220853
0.244966,-0.000228304
0.244966,-0.000377612
0.246,-0.000370744
0.25,-0.000672818
0.25,-0.000534471
0.256,-0.000207298
0.26,4.44493e-06
0.27,-0.00274561
0.28,-0.000193363
0.287977,-0.0002009
0.299963,-0.000139874
0.3,-0.00134355
0.3,-0.000680157
0.3,-0.000416094
0.3,-0.000306109
0.3,-0.000576902
0.3,-0.000427467
0.3,-0.000849534
0.303951,-0.000157292
0.3125,-0.000494105
0.32,-0.00058017
0.32,-0.000337365
0.32,-0.000326693
0.324333,-0.000317607
0.33,-0.000324322
0.333333,-0.000317924
0.336,-0.000316625
0.34,-0.000385075
0.34,-0.000365724
0.35,-0.000457935
0.351958,-0.000265223
0.36,-0.000214514
0.363,-0.000358924
0.372,-0.000587985
0.384,-0.000318835
0.384615,-0.000460394
0.4,-0.000330346
0.4,-0.000490582
0.4,-0.000319111
0.4,-0.00024884
0.4,-0.000325078
0.4,-0.0004907
0.4,-0.000601729
0.4,-0.00269876
0.4,-0.000553474
0.4,-0.000147056
0.4,-0.000369954
0.4,-0.000390867
0.415385,-0.000269742
0.42,-0.000371929
0.43,-0.0003265
0.44,-0.000357624
0.45,-0.00356568
0.45,-0.000498179
0.452632,-0.00101146
0.46,-0.0118294
0.479904,-0.000436324
0.48,-0.000262821
0.485437,-0.000349523
0.495283,-0.00075762
0.5,-0.000349244
0.5,-0.00067256
0.5,-0.000541037
0.5,-0.00322525
0.5,-0.000616775
0.5,-0.000312966
0.50104,-0.000386808
0.507614,-0.000479375
0.512,-0.000436468
0.51872,-0.000360656
0.520833,-0.000660658
0.52872,-0.000308073
0.533333,-0.000311438
0.542005,-0.00034708
0.55,-0.000439507
0.56,-0.000347939
0.571429,-0.000658248
0.575,-0.000463072
0.587,-0.000930432
0.6,-0.00061536
0.6,-0.000446039
0.6,-0.000515577
0.6,-0.000583111
0.616,-0.000194675
0.62,-0.000297667
0.64,-0.00027509
0.663415,-0.000210731
0.67,-0.000346599
0.69,-0.00758257
0.7,-0.00029752
0.72,-0.000690816
0.736,-0.000490537
0.753,-0.000956252
0.757576,-0.000288349
0.8,-0.000236294
0.8,0.000595874
0.8,-0.000231353
0.8,-0.000245137
0.8,-0.00041403
0.8,-0.000237365
0.8,-0.000947256
0.816049,-0.000112146
0.867925,-0.000131998
0.88,-0.000138899
0.913,-0.000325167
0.93,-0.000139922
0.957,-0.000349303
1,-0.000188425
1.00694,-0.000140738
1.04,-0.000541429
1.0625,-0.000448487
1.1,-0.00366872
1.2,-0.000307408
1.25,-0.00547795
1.31,-0.000137012
1.52,0.000581383
1.6,0.000493348
2,0.000948276
2.0,0.015644
2.0,0.0157882
2.17647,0.000788842
2.47667,0.000539813
3,0.000549524
3.2,0.000282862
8,0.000390896
12.8,0.000310365
358.4,0.000599903