Folder: zeosyn_dataset/KFI-RHO-LTA-UFI_paper/dependence_plot_data (part 3)

File: RHO_CsSi.csv
Cs/Si,SHAP value
0.0,-0.00495918
0.0,-0.000571993
0.0,-0.000751856
0.0,-0.00174776
0.0,-0.000461233
0.0,-0.0299364
0.0,-0.0011419
0.0,-0.000636449
0.0,-0.000654812
0.0,-0.00071539
0.0,-0.000649316
0.0,-0.000904337
0.0,-0.000972419
0.0,-0.000668996
0.0,-0.000819712
0.0,-0.000627718
0.0,-0.000620481
0.0,-0.000576814
0.0,-0.00199299
0.0,-0.000615819
0.0,-0.000778457
0.0,-0.000607716
0.0,-0.000606152
0.0,-0.000671005
0.0,-0.000439005
0.0,-0.000873811
0.0,-0.000985268
0.0,-0.000710256
0.0,-0.00592024
0.0,-0.000661513
0.0,-0.000671208
0.0,-0.000961567
0.0,-0.000539897
0.0,-0.000635633
0.0,-0.000644623
0.0,-0.000594934
0.0,-0.000557035
0.0,-0.000617839
0.0,-0.00131114
0.0,-0.000619654
0.0,-0.000535457
0.0,-0.0122285
0.0,-0.000593134
0.0,-0.00197542
0.0,-0.000814238
0.0,-0.00142993
0.0,-0.000505801
0.0,-0.000494588
0.0,-0.000969501
0.0,-0.000844604
0.0,-0.00094181
0.0,-0.00262371
0.0,-0.000778499
0.0,-0.000611326
0.0,-0.000370204
0.0,-0.000541149
0.0,-0.00132354
0.0,-0.000851948
0.0,-0.000571538
0.0,-0.000977254
0.0,-0.00111877
0.0,-0.000552155
0.0,-0.0122745
0.0,-0.000650227
0.0,-0.0012584
0.0,-0.000640701
0.0,-0.00249601
0.0,-0.00294005
0.0,-0.000775517
0.0,-0.000647987
0.0,-0.000518872
0.0,-0.0013024
0.0,-0.000595928
0.0,-0.000477233
0.0,-0.000546987
0.0,-0.00102575
0.0,-0.00065066
0.0,-0.000765289
0.0,-0.000594779
0.0,-0.000690121
0.0,-0.000996904
0.0,-0.00722076
0.0,-0.00056773
0.0,-0.000480818
0.0,-0.0018437
0.0,-0.00089558
0.0,-0.00054294
0.0,-0.00141024
0.0,-0.000488177
0.0,-0.000493333
0.0,-0.000867681
0.0,-0.000595707
0.0,-0.000421121
0.0,-0.00060351
0.0,-0.000935327
0.0,-0.000579483
0.0,-0.00816117
0.0,-0.00106477
0.0,-0.00283453
0.0,-0.000800373
0.0,-0.00114261
0.0,-0.000554835
0.0,-0.000622092
0.0,-0.000528733
0.0,-0.00103656
0.0,-0.000601037
0.0,-0.000437217
0.0,-0.000494977
0.0,-0.000525293
0.0,-0.00129982
0.0,-0.000688914
0.0,-0.000984307
0.0,-0.00159275
0.0,-0.00130205
0.0,-0.000714374
0.0,-0.00127623
0.0,-0.00105641
0.0,-0.00100418
0.0,-0.000898875
0.0,-0.000761391
0.0,-0.000732434
0.0,-0.000483349
0.0,-0.000596279
0.0,-0.000625779
0.0,-0.00957926
0.0,-0.000594039
0.0,-0.00138036
0.0,-0.00114857
0.0,-0.000415254
0.0,-0.000669402
0.0,-0.000567103
0.0,-0.000689545
0.0,-0.000588674
0.0,-0.000820633
0.0,-0.00059163
0.0,-0.00152569
0.0,-0.00276842
0.0,-0.00145389
0.0,-0.000494722
0.0,-0.00185237
0.0,-0.00127227
0.0,-0.000659129
0.0,-0.00169716
0.0,-0.00129051
0.0,-0.00064002
0.0,-0.000469836
0.0,-0.00113768
0.0,-0.00148491
0.0,-0.000523429
0.0,-0.00299577
0.0,-0.000541329
0.0,-0.0027713
0.0,-0.000499126
0.0,-0.000640278
0.0,-0.000735926
0.0,-0.000781004
0.0,-0.000694313
0.0,-0.000448815
0.0,-0.00055135
0.0,-0.000799468
0.0,-0.000593311
0.0,-0.000548415
0.0,-0.000587015
0.0,-0.00102131
0.0,-0.000507571
0.0,-0.000674035
0.0,-0.000575802
0.0,-0.000752403
0.0,-0.000655733
0.0,-0.000611275
0.0,-0.000468128
0.0,-0.00231559
0.0,-0.000664373
0.0,-0.000462657
0.0,-0.00067332
0.0,-0.000971213
0.0,-0.000677895
0.0,-0.000681227
0.0,-0.000821381
0.0,-0.00107458
0.0,-0.00124069
0.0,-0.000659782
0.0,-0.00071377
0.0,-0.000566023
0.0,-0.000598076
0.0,-0.000568734
0.0,-0.000734567
0.0,-0.000950947
0.0,-0.00206609
0.0,-0.000575644
0.0,-0.000743789
0.0,-0.000757024
0.0,-0.000650765
0.0,-0.000622833
0.0,-0.00303454
0.0,-0.000630701
0.0,-0.000437224
0.0,-0.000593233
0.0,-0.00203337
0.0,-0.000569016
0.0,-0.000573339
0.0,-0.00169091
0.0,-0.000689669
0.0,-0.000967425
0.0,-0.000812037
0.0,-0.000808176
0.0,-0.000614451
0.0,-0.000713071
0.0,-0.000430641
0.0,-0.000449724
0.0,-0.000698298
0.0,-0.0005234
0.0,-0.00160837
0.0,-0.000641707
0.0,-0.00150745
0.0,-0.000678974
0.0,-0.000391287
0.0,-0.00122321
0.0,-0.000685528
0.0,-0.000769788
0.0,-0.000655249
0.0,-0.000715689
0.0,-0.000562083
0.0,-0.000556088
0.0,-0.000675454
0.0,-0.00323072
0.0,-0.000851463
0.0,-0.000667915
0.0,-0.000745935
0.0,-0.000611631
0.0,-0.00111586
0.0,-0.000671433
0.0,-0.0105388
0.0,-0.000661197
0.0,-0.000841906
0.0,-0.000689669
0.0,-0.000939392
0.0,-0.000502065
0.0,-0.000548581
0.0,-0.000610908
0.0,-0.000489321
0.0,-0.000877118
0.0,-0.000611387
0.0,-0.000455562
0.0,-0.000568182
0.0,-0.00321213
0.0,-0.000547415
0.0,-0.000581056
0.0,-0.000578837
0.0,-0.00086645
0.0,-0.00113415
0.0,-0.00248373
0.0,-0.000631548
0.0,-0.000651196
0.0,-0.000853637
0.0,-0.00200185
0.0290625,0.131928
0.06,0.11997
0.1,0.020897
0.167,0.00283482
0.33,0.00416131
0.333,0.00414031
0.5,0.00394149
0.5,0.00279184
16,0.00493608

File: RHO_H2OSi.csv
H$_2$O/Si,SHAP value
0.0,0.00103893
0.0,0.000971228
0.0,0.00102748
0.0,0.000224078
0.0,0.00117215
0.0,0.000610286
0.0,0.00104494
0.0,0.000796458
0.0,0.000587833
0.0,0.000914595
0.0,0.00101147
0.0,0.00087588
0.0,0.000744208
0.0,0.000735401
0.388889,0.00105888
1.0,0.00328632
1.80072,0.00140173
2.04082,0.000832764
2.13333,0.00093037
2.5,0.00163069
2.85714,0.000975349
3.0,0.000765974
3.06,0.000922423
3.29997,0.000846663
3.3,0.000975539
3.75,0.000875551
4.21053,0.00104423
4.54545,0.000782242
4.54545,0.000794798
4.74716,0.000641358
4.78723,0.000642637
4.89362,0.000997883
5,0.00147194
5,0.000746258
5,0.000846593
5,0.00112506
5.0,0.000999141
5.0,0.000717721
5,0.000846703
5,0.000937285
5,0.000664927
5.01667,0.000714631
5.17857,0.000863122
5.33333,0.000874871
5.6,0.000756623
5.9727,0.00084769
6.25,0.00208057
6.66667,0.00213287
7,0.000838871
7.0,0.000975717
7,0.0013164
7.25,0.00173669
7.5,0.000966772
7.69992,0.00142916
7.69992,0.00104954
8.16667,0.00100697
8.75,0.00452799
9.0,0.00478826
9.5,0.00316341
9.82,0.000856662
10,0.00291085
10.0,0.00334088
10.0,0.00094619
10.0,0.00108234
10.0,0.0677661
10.0,0.00126611
10.0,0.00291854
10.0,0.00108234
10,0.00485624
10,0.000958655
10.5042,0.000598237
10.6061,0.000679572
10.6667,0.000654812
10.673,-0.0131248
11.0,0.000826755
11.3,0.000503801
11.6,0.00019003
11.9585,0.000530694
12.3457,0.000175394
12.6875,2.19267e-05
13,2.75086e-05
13.5,-0.00283446
13.6459,-6.75523e-05
14,-0.000459335
14.0,0.000360618
14.0,-4.17167e-05
14.7059,-0.000247583
15,-0.000120444
15,-0.000121915
15,-0.000168223
15,-0.000221351
15,-0.000161258
15.0,-0.000434767
15.0,-0.000251313
15.0,-0.000294363
15.0,-0.000372434
15.0,-0.000712744
15,-9.73862e-05
15,-0.000278825
15,-0.00208508
15.5,-0.000239613
15.8,-0.00500154
16.0,-0.000591695
16,-0.00537629
16.4998,-0.000452371
16.4998,-0.000507984
16.6667,-0.00143238
16.6667,-0.000553563
16.6667,-0.000173567
17.5,-0.0052864
18.0,-0.00119813
19.2,-0.00050582
19.5,-0.000534009
19.5,-0.000550575
20,-0.00058601
20,-0.000579815
20,-0.000354883
20,-0.00059107
20,-0.00109957
20.0,-0.000685524
20.0,-0.000552214
20.0,-0.000499857
20.0,-0.00070883
20.0,-0.000456818
20,-0.00604194
20,-0.000582546
20,-0.00117124
20.4,-0.001235
21,-0.00066997
21.135,-0.000583683
22,-0.000391461
22.5,-0.000366784
22.7273,-0.000641487
23.5189,-0.000795037
23.8095,-0.000694684
24.434,-0.00105052
25,-0.000502766
25,-0.000618851
25.0,-0.000656378
25,-0.00182693
26.0,-0.000520917
27,-0.000855054
27.9444,-0.000913749
28,-0.00106996
30,-0.000501504
30,-0.000518098
30,-0.000773091
30,-0.000698804
30,-0.000595746
30,-0.000561434
30,-0.000637153
30,-0.000711862
30,-0.000581216
30,-0.000859901
30,-0.000563699
30.0,-0.000628285
30.0,-0.000981238
30.0,-0.000505056
30.0,-0.000546944
30.0,-0.000628158
30.0,-0.000527612
30.0,-0.000612172
30,-0.000611275
30,-0.000841792
30,-0.000701211
30,-0.000855595
30,-0.000573475
30,-0.000703258
30,-0.000470995
30,-0.000596073
30,-0.000718339
30.45,-0.000786089
31,-0.000489491
31.2,-0.000903526
33.2,-0.000875948
35,-0.000577522
35,-0.0010509
35,-0.00114702
35,-0.000575413
35.0,-0.00135257
35.0,-0.000791923
35,-0.000456627
35.04,-0.00056803
35.5625,-0.000895662
36,-0.000930729
36.7816,-0.000951824
37.182,-0.000663875
37.8788,-0.000534322
38.0711,-0.000558247
38.6287,-0.000512789
40,-0.000572534
40,-0.00134494
40,-0.000628382
40,-0.000679009
40,-0.0014387
40,-0.000585986
40.0,-0.000596956
40.0,-0.000967862
40.0,-0.000596801
40.0,-0.000903459
40.0,-0.000782146
40.0,-0.00057841
40.0,-0.000484345
40.0,-0.00054353
40.0,-0.000962642
40.0,-0.000701348
40,-0.000526451
40,-0.000586243
40,-0.00108788
40,-0.000503463
40,-0.000808142
40,-0.000634225
40,-0.000586679
40,-0.000599204
40,-0.00128225
40,-0.000961473
40.3297,-0.000421616
40.8889,-0.00110252
41.5,-0.000777337
42,-0.000489722
42,-0.000858636
42.0,-0.000562753
42.3077,-0.000815486
43.5714,-0.000605534
43.7584,-0.00130188
43.7584,-0.00115591
44,-0.000761574
44.0,-0.000716543
44,-0.000605562
45,-0.000905815
45.0,-0.000729315
45.0,-0.000535543
45,-0.000709985
45,-0.00061245
45.4545,-0.000958754
45.4545,-0.00070475
45.72,-0.00150673
47,-0.000583728
50,-0.000608798
50,-0.000755575
50,-0.00115794
50,-0.000755479
54,-0.000771069
57,-0.000639009
58.6538,-0.00131717
60,-0.00287883
60,-0.00251363
60,-0.000838705
64,-0.00081284
68.8119,-0.00195246
76.9231,-0.00102113
84,-0.0043886
95,-0.000737764
100,-0.00101918
100.0,-0.000985628
100.0,-0.00161462
100,-0.00134178
108.824,-0.00132408
120.0,-0.00149265
136.25,-0.00280156
174.0,-0.00103828
200.0,-0.00130709
250,-0.000754405
410,-0.000941772
714.286,-0.00107933

File: RHO_NaSi.csv
Na/Si,SHAP value
0.0,-0.000287794
0.0,2.85491e-06
0.0,-0.000287794
0.0,0.000133087
0.0,-0.000153728
0.0,-0.000156724
0.0,-0.000529801
0.0,-0.00042931
0.0,-6.68375e-05
0.0,-5.30288e-07
0.0,-0.0001576
0.0,-0.000116926
0.0,-0.000425256
0.0,-0.00095491
0.0,-0.00196334
0.0,-0.000132393
0.0,-0.000560589
0.0,-0.000791721
0.0,-0.000185198
0.0,-0.000275816
0.0,-0.00154071
0.0,-0.000474184
0.0,-0.000279844
0.0,-0.000257389
0.0,-0.000282204
0.0,-0.000373863
0.0,-0.000148931
0.0,-0.000126727
0.0,-0.000314923
0.0,-0.000922869
0.0,-0.000106037
0.0,-2.39348e-05
0.0,-4.72499e-05
0.0,-0.000374576
0.0,-0.000661531
0.0,9.02902e-05
0.0,-0.000469486
0.0,-0.000259551
0.0,-0.000127172
0.0,-0.000130545
0.0,-0.000292484
0.0,-0.00048246
0.0,5.5484e-05
0.0,-0.000312933
0.0,-2.77977e-05
0.0,-0.000164359
0.0,-0.000183886
0.0,-0.00041076
0.0,-0.000228435
0.0,-0.000101444
0.0,-0.000457702
0.0,-0.000388507
0.0,-1.2011e-05
0.0,-0.000295905
0.0,-0.000436543
0.0,0.000157571
0.0,-0.000695629
0.0,-0.000557394
0.0,-3.97807e-05
0.0,-0.00149712
0.0,-0.000241076
0.0,-0.000568984
0.0,-0.000170724
0.0,-0.000470893
0.0,-0.000202291
0.0,2.17171e-05
0.0,-7.68286e-05
0.0,-0.000621631
0.0,-0.000124068
0.0,-0.000556598
0.0,-0.000195426
0.0,-0.000529251
0.0,-0.000419992
0.0,-3.58377e-05
0.0,-0.00106347
0.0,-0.000314741
0.0,-0.000613249
0.0,-0.000557177
0.0,-0.000581695
0.0,-7.68251e-05
0.0,-8.98853e-05
0.0,-0.000852343
0.0,-0.000131652
0.0,-0.000100274
0.0,-0.000573217
0.0,-0.000386129
0.0,-0.000226395
0.0,-0.000123852
0.0,-0.000327363
0.0,-0.000103662
0.0,-0.0003962
0.0,-0.000156384
0.0,-0.000643913
0.0,-0.00045457
0.0,-7.87325e-05
0.0,-0.000156325
0.0,-0.000167079
0.0,-0.000106037
0.0,-0.000461504
0.0,-9.64382e-05
0.0,-0.000131652
0.0,-0.000176522
0.0,-0.00044085
0.0,-0.00033262
0.0,-0.000447195
0.0,-0.000329635
0.0,-0.000220551
0.0,-0.000153728
0.0005,-1.38888e-05
0.008,0.000241804
0.0125,0.000259437
0.0181818,0.000160749
0.02,0.000379375
0.02,0.000253673
0.0220513,0.000311143
0.0243333,0.000444989
0.025,0.000343664
0.028,0.000100999
0.03,0.000241747
0.03,0.00035664
0.03,0.000356555
0.0334,0.000292907
0.04,0.000378771
0.048,-0.00125417
0.05,0.000362455
0.05,0.000379585
0.05,0.000559274
0.06,0.000586634
0.06,0.000438136
0.0625,0.000265102
0.0638298,0.000634908
0.0666667,0.000223389
0.0711111,0.000366828
0.075,-0.00178428
0.08,0.000326772
0.08,0.000284828
0.08,0.000292511
0.083,0.00070993
0.09,0.000662455
0.09,0.000533748
0.1,0.00101905
0.1,0.000540246
0.1,0.000866614
0.1,0.000664414
0.1,0.000737207
0.1,0.000899829
0.1,0.000831766
0.1,0.00134075
0.1,0.001231
0.1,0.000628126
0.1,0.000500909
0.100671,0.000662361
0.100671,0.000679405
0.101299,0.00225986
0.11,0.000725443
0.11,0.000461936
0.11,0.000550137
0.113208,0.00051532
0.117647,0.00059128
0.12,0.000572223
0.12,0.000768064
0.133333,0.000720996
0.136364,0.000641829
0.14,0.000571699
0.15,0.000849319
0.15,0.000692348
0.16,0.000851849
0.16,0.000686961
0.17,0.000596273
0.18,0.00076675
0.18,0.000797703
0.18,0.0515231
0.18,0.00076593
0.185,0.000658809
0.2,0.0007289
0.2,0.000839581
0.2,0.000735701
0.2,0.000650824
0.2,0.000684272
0.2,0.000375624
0.2,0.000514296
0.2,0.000596481
0.2,0.000740105
0.2,0.00129073
0.21,0.000785842
0.22,0.000679729
0.22,0.000718174
0.232,0.00087208
0.24,0.000621826
0.246,0.000587538
0.25,0.000541421
0.25,0.000778716
0.26,0.000897081
0.276923,0.000955891
0.28,0.000769066
0.29697,0.000657066
0.3,0.000704315
0.3,0.00101485
0.3,0.00109201
0.3,0.00138864
0.3,0.00108746
0.3,0.000880175
0.3,0.000619632
0.32,0.000825493
0.33,0.00100398
0.333333,0.000556482
0.333333,0.000595584
0.35,0.00325449
0.36,0.000580992
0.361702,0.00184939
0.379939,0.00167887
0.38,0.00095259
0.4,0.00055303
0.404959,-0.00309371
0.42,-0.000556722
0.42,0.000281886
0.46,0.000449176
0.466,0.00040115
0.47,1.51305e-05
0.47,1.14559e-05
0.472727,0.000212615
0.48,-0.00721967
0.485437,0.000566182
0.5,0.00032168
0.5,0.00023518
0.52,0.00130655
0.524843,0.00112438
0.527778,0.000544077
0.529,0.000315794
0.533333,0.00159269
0.54,-0.0024974
0.542005,0.000379017
0.5559,0.000193624
0.565789,0.000181572
0.574713,-8.88969e-05
0.58,0.00126436
0.6,-5.1401e-05
0.6,1.22413e-05
0.6,0.000245055
0.6,8.66943e-05
0.6,-6.01387e-05
0.6,-4.54584e-05
0.6,6.98194e-05
0.6,0.000343508
0.6,0.00169192
0.6,8.29117e-08
0.6269,5.91831e-05
0.64,0.000215252
0.64,0.000844106
0.6609,-4.26709e-05
0.7,-6.70823e-05
0.7,-0.000193739
0.716763,-0.000252283
0.73,-0.00036892
0.73,-0.000370867
0.73,-0.000124101
0.77037,-0.000222192
0.8,-0.000201825
0.8,0.000102899
0.8,-8.87726e-05
0.833333,-0.000317619
0.87,-0.000255224
0.88,-0.00204432
0.92,-0.000778855
0.967742,-0.000258248

File: RHO_OHSi.csv
OH/Si,SHAP value
0.0,0.00117155
0.0,0.000316395
0.0,0.000406753
0.0,0.000362608
0.0,0.000491044
0.0,0.000501903
0.0,0.000369526
0.0,0.000857885
0.0,0.000434061
0.0,0.000550731
0.0,0.00440847
0.0,0.00100061
0.0,0.000402012
0.0,0.000224365
0.0,0.000306526
0.0,0.000484452
0.0,0.000454234
0.0,0.000766096
0.0,0.000481699
0.0,0.000452927
0.0,0.00032412
0.0,0.000556526
0.0,0.000812338
0.0,0.000438085
0.0,0.000725234
0.0,0.000420531
0.0,0.000644836
0.0,0.000368774
0.0,0.00067857
0.0,0.000361374
0.0,0.000890865
0.0,0.000488812
0.0,0.000537343
0.0,0.000757388
0.0,0.000433911
0.0,0.000608997
0.0,0.000699411
0.0,0.00107844
0.0,0.000934594
0.0,0.00060193
0.0,0.000684274
0.0,0.000566244
0.0,0.000520179
0.0,0.000357452
0.0,0.000557597
0.0,0.000351309
0.0,0.00063875
0.0,0.000595848
0.0,0.0004379
0.0,0.00060539
0.0,0.000438085
0.0,0.000473276
0.0,0.00055812
0.0,0.000610775
0.0,0.000360437
0.0,0.000481005
0.0,0.00042298
0.0,0.000629791
0.0,0.000393638
0.00260833,0.000547428
0.016,0.0003967
0.02,0.0014029
0.024,0.000411697
0.024,0.00039041
0.0313,0.00051624
0.036,0.000791401
0.04,0.000505701
0.04,0.000525569
0.0420875,0.000500636
0.048,0.000580775
0.048,0.000503106
0.05,0.000963315
0.056,0.000390979
0.060024,0.000537196
0.064,0.000504333
0.0664,0.000570919
0.07,0.000220373
0.072,0.000106547
0.075,-0.00619284
0.08,0.000316071
0.08,0.000220437
0.088,0.000145429
0.088,0.000147848
0.088,0.000119926
0.088,9.11874e-05
0.0933333,0.000333395
0.096,0.000127653
0.1,0.000225125
0.1,0.000225184
0.1,0.000171331
0.11039,0.000113961
0.112,8.67101e-05
0.12,2.69141e-05
0.12,0.00013743
0.125,1.19947e-05
0.133333,6.98609e-05
0.142857,5.48513e-05
0.144,9.59996e-06
0.144,-0.00255062
0.144,0.000398252
0.148,7.44871e-05
0.15,1.79964e-05
0.152,8.25211e-05
0.16,4.157e-05
0.16,4.45273e-05
0.16,3.01846e-05
0.16,0.000103465
0.16,2.56509e-05
0.166667,-3.38987e-05
0.172,0.000119797
0.176,2.27521e-06
0.178,0.000170416
0.18,6.13856e-05
0.18,-2.21211e-05
0.183908,0.000291739
0.189394,-6.03709e-05
0.191667,0.000463605
0.192,9.2391e-06
0.2,-1.34749e-05
0.2,-1.97278e-05
0.2,-0.00021012
0.2,-0.000319167
0.2,-3.23661e-06
0.2,9.24803e-06
0.2,-0.000121632
0.2,9.63799e-06
0.2,7.77587e-05
0.2,2.58194e-05
0.2,-5.37582e-05
0.2,-4.56548e-06
0.2,3.54984e-05
0.2,-1.27517e-05
0.21,0.000204026
0.22,2.08603e-05
0.228,-0.000148505
0.24,-2.15358e-06
0.24,-5.25432e-05
0.24,-6.34214e-05
0.244966,-0.000210781
0.244966,-2.42133e-05
0.246,2.73874e-05
0.25,1.02471e-05
0.25,-3.49101e-05
0.256,-0.000159762
0.26,0.00146014
0.27,1.57939e-05
0.28,0.00118429
0.287977,-0.000114255
0.299963,-0.00270411
0.3,2.43562e-05
0.3,-0.00165594
0.3,0.000109171
0.3,-3.2461e-05
0.3,-0.000102779
0.3,-7.60331e-05
0.3,-3.55475e-05
0.303951,3.50896e-06
0.3125,-0.000117884
0.32,-0.000252664
0.32,-0.000240595
0.32,-0.000261686
0.324333,-0.000383063
0.33,-0.000399252
0.333333,-0.000520801
0.336,-0.0121582
0.34,-0.000205333
0.34,-0.000222024
0.35,-0.000121414
0.351958,-5.68845e-05
0.36,6.76289e-06
0.363,-0.000210803
0.372,-7.81568e-06
0.384,-0.0121693
0.384615,-0.000109066
0.4,-0.000191667
0.4,-0.000292434
0.4,-3.54521e-05
0.4,-0.00411329
0.4,8.36331e-06
0.4,-0.000394322
0.4,-0.000113709
0.4,-8.45488e-06
0.4,-0.000452506
0.4,0.00126633
0.4,-0.000197362
0.4,-0.000335509
0.415385,-0.00012989
0.42,-0.00021697
0.43,-0.000271861
0.44,-0.000178052
0.45,-4.58822e-05
0.45,-5.93075e-05
0.452632,-0.000268899
0.46,-5.57264e-05
0.479904,0.0003741
0.48,0.000625572
0.485437,0.000445931
0.495283,-3.82623e-05
0.5,1.7601e-05
0.5,-0.000387538
0.5,-6.26975e-05
0.5,-1.94532e-05
0.5,-5.35671e-05
0.5,-6.134e-05
0.50104,-0.000177851
0.507614,9.76463e-06
0.512,0.000512756
0.51872,-6.01295e-05
0.520833,-6.7873e-05
0.52872,2.77736e-05
0.533333,0.000351232
0.542005,3.06698e-05
0.55,1.88007e-05
0.56,-0.000302733
0.571429,-0.00012928
0.575,-0.000461024
0.587,-0.00019885
0.6,-0.000171646
0.6,-0.000319808
0.6,-0.000147927
0.6,-0.000198293
0.616,-0.000431758
0.62,-0.000392384
0.64,-0.000355005
0.663415,0.00328629
0.67,-0.000321697
0.69,-0.000181757
0.7,-0.000343162
0.72,-0.000265981
0.736,-0.00124671
0.753,-0.000586775
0.757576,-0.000282607
0.8,-0.000530961
0.8,-0.000267974
0.8,-0.000365721
0.8,-0.000456743
0.8,-0.000406279
0.8,-0.00239944
0.8,-0.000530899
0.816049,-0.00115071
0.867925,-0.000439238
0.88,-0.00115772
0.913,-0.000434575
0.93,-0.000413695
0.957,-0.00042397
1,-0.000630041
1.00694,-0.000611791
1.04,-0.000627237
1.0625,-0.000484202
1.1,-0.000375128
1.2,-0.000543355
1.25,-0.000267888
1.31,-0.000459596
1.52,-0.00133839
1.6,-0.0011497
2,-0.0018948
2.0,-0.000377689
2.0,-0.000351913
2.17647,-0.000522417
2.47667,-0.000535347
3,-0.000536893
3.2,-0.000308316
8,-0.000507801
12.8,-0.0021842
358.4,-0.000391051

File: UFI_Crystallization temp.csv
Crystallization temp,SHAP value
0.0,-0.000282741
30.0,-0.00225493
65.0,-0.000294584
80.0,-0.00125235
90.0,-0.00020074
90.0,-0.000317752
90.0,-0.000206589
100.0,-0.0011213
100.0,-0.000173922
100.0,-0.000303473
100.0,-0.000143858
100.0,-0.000304424
100.0,2.74162e-05
100.0,-0.000255001
100.0,-0.000337159
100.0,-0.000734663
100.0,-0.000340759
100.0,-0.000125358
100.0,-0.00014408
100.0,-0.000180352
100.0,-3.53745e-05
100.0,-0.000303473
100.0,-0.000257413
100.0,-0.00028164
100.0,-0.000736825
100.0,-0.000472785
100.0,-0.000279607
100.0,-0.00287637
110.0,-0.000297628
110.0,-0.000364566
110.0,-0.000288044
110.0,-0.000512341
110.0,-0.000288122
115.0,-0.00133317
120.0,4.11439e-05
120.0,-0.00640656
120.0,7.34718e-05
120.0,0.000167542
120.0,0.000623066
125.0,0.000535542
125.0,0.000742922
125.0,0.000736619
130.0,0.00029533
130.0,0.000289423
135.0,0.000449402
135.0,0.000279364
135.0,0.000475451
135.0,0.000254362
135.0,0.000713911
135.0,0.000244044
135.0,0.000255764
135.0,0.000339451
138.0,0.000299968
140.0,0.000361183
140.0,0.000282642
140.0,0.000329412
140.0,0.000251069
140.0,0.000305444
140.0,0.000247604
140.0,0.000280394
140.0,0.000905585
140.0,0.000319453
140.0,0.000320968
140.0,0.000498724
140.0,0.000939128
140.0,0.000332685
140.0,0.000334524
140.0,0.000321169
140.0,0.00055377
140.0,0.00068705
142.5,0.000117234
142.813,0.000227673
145.0,0.00235161
147.732,0.000433931
150.0,0.000404511
150.0,0.000277158
150.0,0.000297165
150.0,0.00048367
150.0,0.00035972
150.0,0.00028383
150.0,0.000430132
150.0,0.000351554
150.0,0.000247642
150.0,0.000579417
150.0,0.000368617
150.0,0.000263779
150.0,0.000375568
150.0,0.000329352
150.0,0.000365632
150.0,0.000281677
150.0,0.000400342
150.0,0.000266359
150.0,0.000202629
150.0,0.000289324
150.0,-0.000177258
150.0,0.000673192
150.0,0.000432393
150.0,0.000376688
150.0,0.000243232
150.0,0.000438463
150.0,0.000620199
150.0,0.000499692
150.0,0.000593458
150.0,0.000376002
150.0,0.000400183
150.0,0.000374733
150.0,0.000240092
150.0,0.000347386
150.0,0.000716633
150.0,0.000556567
150.0,0.000269496
150.0,0.000247343
150.0,0.000172001
150.0,0.000524058
158.0,-3.02441e-05
160.0,-0.000484902
160.0,-8.90842e-05
160.0,-8.03087e-05
160.0,0.000270828
160.0,0.00013655
160.0,2.0159e-06
160.0,7.65282e-05
160.0,3.78568e-05
160.0,0.000123048
160.0,2.39713e-05
160.0,5.36941e-05
160.0,1.83821e-05
160.0,-6.97994e-05
160.0,3.18703e-05
160.0,1.11489e-05
160.0,1.90672e-05
160.0,2.84125e-05
160.0,7.04925e-05
160.0,9.11616e-05
160.0,4.1504e-05
160.0,9.15831e-05
160.0,3.25439e-05
160.0,2.8506e-05
160.0,4.25668e-06
160.0,0.000112674
160.0,2.70285e-05
160.0,2.7211e-05
160.0,3.14916e-05
160.0,8.7229e-05
160.0,-2.54023e-05
160.0,8.62601e-06
160.0,0.000188444
160.0,2.91806e-05
160.0,7.76772e-05
160.0,1.96287e-05
160.0,2.73867e-05
160.0,3.35046e-05
160.0,2.88907e-05
160.0,0.000127227
160.0,0.000101332
160.0,8.46601e-05
160.0,8.14458e-05
160.0,-7.50217e-05
160.0,7.27785e-05
160.0,2.91806e-05
160.0,-4.11245e-05
160.0,3.16109e-05
160.0,3.48813e-05
160.0,6.39678e-05
160.0,5.37601e-05
160.0,0.000408599
160.0,0.000144896
160.0,-1.7884e-05
160.0,-7.69029e-05
160.0,0.000238707
160.0,4.39802e-06
160.0,-1.78507e-05
160.0,5.56294e-05
160.0,-1.02196e-05
160.0,2.12084e-05
160.0,2.10085e-05
160.0,1.12549e-05
160.0,3.94554e-05
160.0,2.52978e-05
160.0,-9.33673e-06
165.0,-5.26797e-05
165.0,-0.000109265
170.0,-7.67048e-05
170.0,-0.000112347
170.0,-0.000178096
170.0,-0.000209652
170.0,-0.000177207
170.0,-6.50853e-05
170.0,-0.00424718
170.0,-0.000196583
170.0,-9.31877e-05
170.0,-0.000111406
170.0,-0.000156935
170.0,-0.00029514
170.0,-0.000110564
170.0,-0.00155412
170.0,-0.000137677
170.0,-8.82152e-05
170.0,-0.000104667
170.0,-0.000197521
170.0,-0.000130845
170.0,-0.000279002
170.0,-0.00013253
170.0,-0.000128942
170.0,-7.98337e-05
170.0,-9.02412e-05
170.0,-0.000199562
175.0,-0.000139654
175.0,-0.000166398
175.0,-0.000143649
175.0,-0.000257028
175.0,-0.000133788
175.0,-0.000182542
175.0,-0.000193107
175.0,-0.000114898
175.0,-0.000139453
175.0,-0.000182228
175.0,-0.000135569
175.0,-0.000194885
175.0,-0.000140282
175.0,-0.000136999
175.0,-0.000137735
175.0,-0.000128298
175.0,-0.000143842
175.0,-0.000128025
175.0,-0.000105656
175.0,-0.000107967
175.0,-0.000279573
175.0,-0.00013337
175.0,-0.000135226
175.0,-0.000213828
175.0,-0.000149867
175.0,-0.000191133
175.0,-0.000940379
175.0,-0.000137503
175.0,-6.46916e-05
175.0,-0.000125232
175.0,-0.000147961
175.0,-0.000223587
175.0,-0.00011291
175.0,-0.000111379
175.0,-0.000145128
175.0,-7.2345e-05
175.0,-0.000283525
180.0,-0.000179565
180.0,-0.000591579
180.0,-0.000117819
180.0,-0.000223834
180.0,-0.000147213
180.0,-0.000158669
180.0,-0.000152782
180.0,-0.000398492
180.0,-0.000329385
180.0,-0.000210446
180.0,-9.69915e-05
180.0,-0.000246019
180.0,-0.000557253
180.0,-0.000151047
190.0,-0.000270663
190.0,-0.000504246
190.0,-0.00039656
200.0,-0.00139228
200.0,-0.00705728
214.891,-0.000202098
500.0,-0.000702476