Folder: zeosyn_dataset/KFI-RHO-LTA-UFI_paper/dependence_plot_data (part 2)

File: LTA_Crystallization temp.csv
Crystallization temp,SHAP value
0.0,0.00712492
30.0,0.0100663
65.0,0.0104758
80.0,0.0726004
90.0,0.0219415
90.0,0.00862737
90.0,0.0220614
100.0,0.0641282
100.0,0.00555203
100.0,0.00436001
100.0,0.00413093
100.0,0.00440809
100.0,0.00400948
100.0,0.00475115
100.0,0.00358929
100.0,0.0152837
100.0,0.0043805
100.0,0.0037786
100.0,0.00398007
100.0,0.00700232
100.0,0.00518037
100.0,0.0043131
100.0,0.00467289
100.0,0.00417894
100.0,0.00856223
100.0,0.00654714
100.0,0.00428044
100.0,0.0119137
110.0,0.00351356
110.0,0.00501715
110.0,0.00354723
110.0,0.017778
110.0,0.00345304
115.0,0.00914703
120.0,-0.00339753
120.0,0.00356984
120.0,3.52123e-05
120.0,0.000392897
120.0,0.00122455
125.0,0.00158881
125.0,0.00071069
125.0,0.000709948
130.0,0.00107698
130.0,0.00223198
135.0,2.17375e-05
135.0,0.00070694
135.0,-0.000799972
135.0,-0.000138977
135.0,-0.00520597
135.0,-0.000181737
135.0,-0.000135196
135.0,-0.0003526
138.0,-0.00158362
140.0,-0.00135896
140.0,-0.000883647
140.0,-0.0011601
140.0,-0.000851276
140.0,-0.0013806
140.0,-0.000483089
140.0,-0.000525511
140.0,-0.00276023
140.0,-0.00250225
140.0,-0.00153399
140.0,-0.000967796
140.0,-0.00365405
140.0,-0.00114104
140.0,-0.00102943
140.0,-0.00275048
140.0,-0.00455262
140.0,-0.00172672
142.5,-0.00270648
142.813,-0.00241863
145.0,-0.010333
147.732,-0.00266169
150.0,-0.00190003
150.0,-0.00244409
150.0,-0.00151563
150.0,-0.00273204
150.0,-0.00417015
150.0,-0.00177861
150.0,-0.00181758
150.0,-0.00227622
150.0,-0.00121309
150.0,-0.0027392
150.0,-0.00149366
150.0,-0.00191432
150.0,-0.00161961
150.0,-0.00240951
150.0,-0.00345931
150.0,-0.00148877
150.0,-0.00185131
150.0,-0.0015432
150.0,-0.00128904
150.0,-0.00301784
150.0,-0.00179147
150.0,-0.00293369
150.0,-0.00291523
150.0,-0.00189065
150.0,-0.00140446
150.0,-0.00198933
150.0,-0.00142926
150.0,-0.00294629
150.0,-0.00224676
150.0,-0.00750591
150.0,-0.00185336
150.0,-0.00241118
150.0,-0.00245459
150.0,-0.00229583
150.0,-0.00324287
150.0,-0.00200893
150.0,-0.00126219
150.0,-0.00226945
150.0,-0.00753978
150.0,-0.00440624
158.0,-0.00634929
160.0,-0.00630145
160.0,-0.00304635
160.0,-0.00330896
160.0,-0.00621371
160.0,-0.00305103
160.0,-0.0021829
160.0,-0.00149915
160.0,-0.00134748
160.0,-0.0044707
160.0,-0.00367555
160.0,-0.00136182
160.0,-0.00249781
160.0,-0.00256919
160.0,-0.00145888
160.0,-0.00250139
160.0,-0.00373834
160.0,-0.00163353
160.0,-0.00150978
160.0,-0.00310193
160.0,-0.00302234
160.0,-0.00150483
160.0,-0.00163503
160.0,-0.00515577
160.0,-0.00205793
160.0,-0.00317832
160.0,-0.00120549
160.0,-0.00203292
160.0,-0.00135569
160.0,-0.00251222
160.0,-0.00162374
160.0,-0.00280869
160.0,-0.00231354
160.0,-0.00198203
160.0,-0.00322479
160.0,-0.00165972
160.0,-0.0014575
160.0,-0.00106886
160.0,-0.00136512
160.0,-0.0022002
160.0,-0.00161344
160.0,-0.00173013
160.0,-0.0047936
160.0,-0.00260225
160.0,-0.00225826
160.0,-0.00198203
160.0,-0.00397447
160.0,-0.00247656
160.0,-0.00291586
160.0,-0.00174312
160.0,-0.00110808
160.0,-0.00310508
160.0,-0.0032088
160.0,-0.00283148
160.0,-0.00209575
160.0,-0.00272164
160.0,-0.00173214
160.0,-0.00139823
160.0,-0.00407344
160.0,-0.00201086
160.0,-0.00151517
160.0,-0.00164767
160.0,-0.00206927
160.0,-0.00354481
160.0,-0.00155405
160.0,-0.00122916
165.0,-0.00154756
165.0,-0.0030649
170.0,-0.0015147
170.0,-0.00173326
170.0,-0.00376211
170.0,-0.00294649
170.0,-0.00509294
170.0,-0.00176621
170.0,-0.00630336
170.0,-0.00914249
170.0,-0.00220717
170.0,-0.0097926
170.0,-0.00759533
170.0,-0.00408572
170.0,-0.00149447
170.0,-0.00583744
170.0,-0.00204504
170.0,-0.0044622
170.0,-0.00211212
170.0,-0.00241405
170.0,-0.00692803
170.0,-0.00840421
170.0,-0.00496957
170.0,-0.00510272
170.0,-0.00145654
170.0,-0.00140704
170.0,-0.00246857
175.0,0.0277877
175.0,-0.00151034
175.0,-0.00238826
175.0,-0.00290129
175.0,-0.00104695
175.0,-0.00108078
175.0,-0.000490923
175.0,-0.00103345
175.0,-0.00125495
175.0,-0.00169524
175.0,-0.00135583
175.0,-0.00191116
175.0,-0.002048
175.0,-0.0020243
175.0,-0.00172722
175.0,-0.00184535
175.0,-0.00215738
175.0,-0.00130714
175.0,-0.00108801
175.0,-0.00124409
175.0,-0.00107301
175.0,-0.00154621
175.0,-0.00126544
175.0,-0.00316358
175.0,-0.00270571
175.0,-0.0018041
175.0,-0.00234641
175.0,-0.000922815
175.0,-0.00142484
175.0,-0.000990734
175.0,-0.00165316
175.0,-0.00130503
175.0,-0.00108297
175.0,-0.00179273
175.0,-0.00164113
175.0,-0.0013048
175.0,-0.00188679
180.0,-0.00143991
180.0,-0.00273426
180.0,-0.00579204
180.0,-0.00324651
180.0,-0.00327429
180.0,-0.00375338
180.0,-0.00210543
180.0,-0.0030254
180.0,-0.00422915
180.0,-0.00441315
180.0,-0.00111329
180.0,-0.00641897
180.0,-0.0048457
180.0,-0.00165556
190.0,-0.00537763
190.0,-0.002827
190.0,-0.00290785
200.0,-0.0118408
200.0,-0.0113827
214.891,-0.00132319
500.0,-0.0107646

File: LTA_H2OSi.csv
H$_2$O/Si,SHAP value
0.0,-0.000810537
0.0,-0.00110656
0.0,-0.000598369
0.0,-0.000722723
0.0,-0.00156643
0.0,-0.000515691
0.0,-0.00275436
0.0,-0.000735031
0.0,-0.000793397
0.0,-0.00104293
0.0,-0.000847356
0.0,-0.00101744
0.0,-0.000926285
0.0,-0.000816045
0.388889,-0.000603484
1.0,-0.00597419
1.80072,-0.000169783
2.04082,-0.000155752
2.13333,-0.000430921
2.5,-0.000826575
2.85714,-0.000859416
3.0,-0.000443691
3.06,-0.000418801
3.29997,-0.000155446
3.3,-0.0004285
3.75,-0.000130551
4.21053,-0.000532949
4.54545,-0.000176717
4.54545,5.90897e-05
4.74716,-0.000415872
4.78723,-0.00019797
4.89362,0.00213094
5,-0.00179824
5,-0.000361855
5,-0.00290211
5,-0.000827156
5.0,-0.00180277
5.0,-0.00234048
5,-0.000462506
5,-0.00159745
5,-0.000777738
5.01667,-0.00233268
5.17857,-0.000491744
5.33333,-0.000131628
5.6,-0.00211668
5.9727,-0.000123753
6.25,-0.000942838
6.66667,-0.00103049
7,-0.0012636
7.0,-0.00372235
7,-0.000262386
7.25,-0.000202723
7.5,-0.00221237
7.69992,-0.000551184
7.69992,-0.000395464
8.16667,-0.0029649
8.75,-0.00216444
9.0,-0.00342501
9.5,-0.00144071
9.82,-0.00170413
10,-0.00126791
10.0,-0.00455502
10.0,-0.000853416
10.0,-0.0011209
10.0,-0.0083442
10.0,-0.00173592
10.0,-0.00411475
10.0,-0.0011209
10,-0.00246592
10,-0.00112438
10.5042,-0.000759533
10.6061,-0.000862159
10.6667,-0.000980462
10.673,-0.0156483
11.0,-0.00117017
11.3,-0.00243278
11.6,-0.00795371
11.9585,-0.00268823
12.3457,-0.0011105
12.6875,-0.00277541
13,-0.00218077
13.5,-0.00998538
13.6459,-0.0054118
14,-0.0021864
14.0,-0.00194886
14.0,-0.00696427
14.7059,-0.00198095
15,-0.00438628
15,-0.00263322
15,-0.00190425
15,-0.00114208
15,-0.00182468
15.0,-0.00288225
15.0,-0.000943954
15.0,-0.00181037
15.0,-0.000919525
15.0,-0.00337821
15,-0.002
15,-0.0027004
15,-0.00529394
15.5,-0.00315921
15.8,-0.00128566
16.0,-0.00444673
16,-0.000917963
16.4998,-0.000987283
16.4998,-0.00110361
16.6667,-0.00352918
16.6667,-0.00233199
16.6667,-0.00149352
17.5,-0.0134351
18.0,-0.00172627
19.2,-0.00102956
19.5,-0.000912679
19.5,-0.000931964
20,-0.00100352
20,-0.000680159
20,-0.000843953
20,-0.000785453
20,-0.0011012
20.0,-0.00238537
20.0,-0.00168929
20.0,-0.000919026
20.0,-0.00105803
20.0,-0.00211215
20,-0.00615466
20,-0.000688879
20,-0.00301911
20.4,-0.000416447
21,-0.000443971
21.135,-0.000602036
22,-0.00354552
22.5,-0.00120698
22.7273,-0.00133388
23.5189,-0.00148886
23.8095,-0.0015119
24.434,-0.00262192
25,2.50068e-05
25,-4.42364e-05
25.0,-0.000567337
25,-0.00287382
26.0,-1.8982e-05
27,-0.00721207
27.9444,0.000327581
28,0.000968516
30,0.000375021
30,0.000544001
30,0.000563163
30,0.000941491
30,5.82721e-05
30,0.000835879
30,0.000180626
30,0.00044262
30,0.000272984
30,0.00114635
30,0.000332525
30.0,-0.000432958
30.0,0.000322024
30.0,0.000200807
30.0,0.000344066
30.0,0.000107558
30.0,0.000502125
30.0,0.000520809
30,0.000134212
30,0.00143586
30,0.000663261
30,0.0022655
30,5.01603e-05
30,7.185e-06
30,8.93543e-05
30,3.09187e-05
30,0.000401716
30.45,0.000382206
31,0.000361029
31.2,0.000658747
33.2,-0.00131961
35,0.000239988
35,0.000521888
35,0.000745784
35,0.000261331
35.0,-0.000246574
35.0,-0.0017068
35,0.00110697
35.04,0.00026372
35.5625,0.000750908
36,0.000108455
36.7816,0.000744769
37.182,0.000741379
37.8788,0.00162437
38.0711,0.00162864
38.6287,0.000884066
40,0.00192429
40,0.00414007
40,0.00183454
40,0.00210768
40,0.0017152
40,0.00238225
40.0,0.00207465
40.0,0.00221685
40.0,0.00207529
40.0,0.00165422
40.0,0.00300195
40.0,0.00186304
40.0,0.00182888
40.0,0.001993
40.0,0.00532051
40.0,0.0018331
40,0.00158729
40,0.00199575
40,0.00376125
40,0.00102491
40,0.00165293
40,0.0019313
40,0.00186252
40,0.00188649
40,0.00385269
40,0.00190442
40.3297,0.00159626
40.8889,8.7475e-05
41.5,0.00200607
42,0.00130577
42,0.00191996
42.0,0.00159763
42.3077,0.00210446
43.5714,0.00235094
43.7584,0.00210176
43.7584,0.00193492
44,0.00419055
44.0,0.0019895
44,0.00173381
45,0.00247906
45.0,0.0022257
45.0,0.00247199
45,0.00167572
45,0.000313588
45.4545,0.00130657
45.4545,0.00246506
45.72,0.00342855
47,0.00220918
50,0.00145898
50,0.00120119
50,0.00352646
50,0.0011777
54,0.00151885
57,0.00238462
58.6538,0.0038291
60,0.0019201
60,0.00150097
60,0.00151365
64,0.00239585
68.8119,0.00556143
76.9231,0.00113934
84,0.0212724
95,0.00187761
100,0.00111893
100.0,0.00346883
100.0,0.00191558
100,0.00256422
108.824,0.000506493
120.0,-0.00316973
136.25,-0.00248442
174.0,0.00607177
200.0,0.000845954
250,0.00159673
410,0.00150622
714.286,0.000870898

File: LTA_NaSi.csv
Na/Si,SHAP value
0.0,-0.00101336
0.0,-0.00100024
0.0,-0.00101336
0.0,-0.00077757
0.0,-0.0011924
0.0,-0.00446783
0.0,-0.000318188
0.0,-0.00147634
0.0,-0.000844502
0.0,-0.000735743
0.0,-0.00046041
0.0,-0.00145082
0.0,-0.0034521
0.0,1.81294e-07
0.0,-0.0164118
0.0,-0.00100541
0.0,-0.000421265
0.0,-0.000379713
0.0,-0.000602342
0.0,-0.000315814
0.0,0.00262864
0.0,-0.00034485
0.0,-0.000856984
0.0,-0.000351371
0.0,0.00311101
0.0,-0.000767565
0.0,-0.000776385
0.0,-0.000540958
0.0,-0.00111935
0.0,-0.000380993
0.0,-0.00102691
0.0,-0.000749013
0.0,-0.000274544
0.0,-0.000755061
0.0,-0.00109396
0.0,-6.35265e-05
0.0,-3.71559e-05
0.0,-0.000692198
0.0,-0.00130651
0.0,-0.000446638
0.0,-0.0191414
0.0,-0.000387674
0.0,-0.000640524
0.0,-0.000303144
0.0,-0.000964378
0.0,-0.000554659
0.0,-0.00101121
0.0,-0.000344824
0.0,-0.000662383
0.0,-0.000293704
0.0,-0.0107213
0.0,-0.00149414
0.0,-0.000614822
0.0,-0.000310822
0.0,-0.000507908
0.0,-0.000795228
0.0,0.060573
0.0,-8.81663e-05
0.0,-0.000759177
0.0,0.00229534
0.0,-0.0256076
0.0,-0.000172583
0.0,-0.000948818
0.0,7.0253e-05
0.0,-0.000620885
0.0,-0.000880622
0.0,0.000637092
0.0,-0.000304942
0.0,-0.000628508
0.0,-0.000163419
0.0,-0.000637736
0.0,-0.00955522
0.0,-0.000607129
0.0,-0.000879679
0.0,-2.75557e-05
0.0,-0.00160879
0.0,-0.00052937
0.0,-0.000296781
0.0,-0.000353747
0.0,0.000686046
0.0,-0.00060913
0.0,-7.02433e-05
0.0,-0.00096219
0.0,-0.000346024
0.0,-0.000121779
0.0,-0.000607201
0.0,-0.00151306
0.0,-0.000581867
0.0,-0.000611027
0.0,0.00150281
0.0,-0.000407837
0.0,-0.000885285
0.0,0.000351796
0.0,-0.000543403
0.0,-0.000598335
0.0,-0.00115492
0.0,-0.0013051
0.0,-0.00104368
0.0,-0.000122475
0.0,-0.000770477
0.0,-0.00096219
0.0,-0.00103451
0.0,-0.000238729
0.0,-0.00118166
0.0,8.68807e-05
0.0,-0.000700624
0.0,-0.000118944
0.0,-0.0011912
0.0005,-0.000877671
0.008,-0.000159217
0.0125,-0.000175129
0.0181818,0.000629025
0.02,6.50562e-05
0.02,0.000274613
0.0220513,0.00020067
0.0243333,7.71126e-05
0.025,9.21718e-05
0.028,0.000570295
0.03,0.000410047
0.03,0.000405988
0.03,0.000360216
0.0334,0.000411724
0.04,0.00090219
0.048,0.000129316
0.05,0.00116379
0.05,0.00152094
0.05,0.00162112
0.06,0.00270119
0.06,0.00267763
0.0625,0.0423992
0.0638298,0.0014292
0.0666667,0.00263062
0.0711111,0.0578413
0.075,0.00118809
0.08,0.00202804
0.08,0.00231937
0.08,0.00189012
0.083,0.00212998
0.09,0.00257411
0.09,0.00174071
0.1,0.0020016
0.1,0.00155023
0.1,0.0013742
0.1,0.00241974
0.1,0.00111032
0.1,0.0016034
0.1,0.00134431
0.1,0.00130984
0.1,0.00143391
0.1,0.00143667
0.1,0.00228908
0.100671,0.00168889
0.100671,0.00180214
0.101299,0.00122355
0.11,0.00164153
0.11,0.00415113
0.11,0.00208009
0.113208,0.00244493
0.117647,0.0661177
0.12,0.00199308
0.12,0.00515559
0.133333,0.00120072
0.136364,0.0818016
0.14,0.00214988
0.15,0.00286933
0.15,0.00102858
0.16,0.00145358
0.16,0.00214146
0.17,0.00288531
0.18,0.00186608
0.18,0.00152286
0.18,0.00116988
0.18,0.000998712
0.185,0.00144318
0.2,0.00277409
0.2,0.00153249
0.2,0.00129047
0.2,0.00227525
0.2,0.00118173
0.2,0.0031027
0.2,0.00204072
0.2,0.00194631
0.2,0.00100577
0.2,0.00137574
0.21,0.0024983
0.22,0.00134918
0.22,0.00131642
0.232,-0.0063791
0.24,0.00170636
0.246,0.00260376
0.25,0.0765949
0.25,0.00157333
0.26,0.00107417
0.276923,0.000831963
0.28,0.00158672
0.29697,0.000824154
0.3,0.00160404
0.3,0.000773833
0.3,-0.000227064
0.3,0.00107648
0.3,0.00140013
0.3,0.000842905
0.3,0.00133986
0.32,0.000632917
0.33,0.000649469
0.333333,0.000824472
0.333333,0.000911219
0.35,-0.000983627
0.36,0.00141498
0.361702,0.000924165
0.379939,0.00314056
0.38,-0.000874232
0.4,0.00126681
0.404959,0.000682507
0.42,0.00126124
0.42,0.00116425
0.46,-0.00148397
0.466,0.000250373
0.47,0.000569969
0.47,0.000611523
0.472727,0.000933607
0.48,0.000613291
0.485437,3.30944e-05
0.5,0.00153634
0.5,0.0137811
0.52,-0.00101531
0.524843,0.000918726
0.527778,-0.010827
0.529,0.00111013
0.533333,0.0265136
0.54,0.000585704
0.542005,0.000203798
0.5559,0.00038155
0.565789,-0.000684142
0.574713,5.20943e-05
0.58,0.000192784
0.6,0.000411004
0.6,0.000269405
0.6,0.000366716
0.6,0.00239099
0.6,0.00039825
0.6,0.000429811
0.6,0.00116606
0.6,-0.000936014
0.6,-0.000186572
0.6,0.000388728
0.6269,0.000608844
0.64,0.000257427
0.64,-0.000689093
0.6609,0.000979982
0.7,-5.52188e-08
0.7,0.000368388
0.716763,-1.02319e-05
0.73,2.52338e-08
0.73,0.000179319
0.73,0.000549375
0.77037,0.00028505
0.8,0.00062602
0.8,0.000303548
0.8,0.00113695
0.833333,-0.00164033
0.87,-3.48348e-05
0.88,-0.0147718
0.92,-0.0039786
0.967742,-0.000207436

File: LTA_OHSi.csv
OH/Si,SHAP value
0.0,-0.000475415
0.0,-0.0025178
0.0,-0.000662325
0.0,-0.00025767
0.0,-0.00117854
0.0,-0.00181025
0.0,-0.00336001
0.0,1.50212e-05
0.0,-0.000606892
0.0,0.000793299
0.0,-0.00136929
0.0,-0.000720405
0.0,-0.000622654
0.0,-0.0020601
0.0,0.00559531
0.0,-0.000379828
0.0,-0.000964919
0.0,-0.000690103
0.0,-0.00129898
0.0,-0.000953274
0.0,-0.00195331
0.0,-0.00334069
0.0,-0.000751885
0.0,-0.000708746
0.0,-0.000500426
0.0,0.000202892
0.0,-0.000386887
0.0,-0.000605008
0.0,-0.000462797
0.0,-0.0027035
0.0,-0.00246876
0.0,-0.00198371
0.0,-0.000557554
0.0,-0.00111305
0.0,-0.000609375
0.0,-0.000329945
0.0,-0.000302317
0.0,-0.00249293
0.0,-0.000474724
0.0,-0.00112506
0.0,-0.00107653
0.0,-0.000577055
0.0,-0.00071784
0.0,-0.0034546
0.0,-0.000674955
0.0,-0.00107668
0.0,-0.00163449
0.0,-0.000390267
0.0,-0.000715927
0.0,0.000358133
0.0,-0.000747244
0.0,-0.000538273
0.0,-0.00109022
0.0,-0.000581494
0.0,-0.000672679
0.0,-0.000906058
0.0,-0.000670629
0.0,-0.000470274
0.0,-0.00060758
0.00260833,-0.00109324
0.016,-0.0031358
0.02,-0.00222523
0.024,-0.00183998
0.024,-0.00232961
0.0313,-0.00132251
0.036,-0.00147401
0.04,-0.00423741
0.04,-0.00183481
0.0420875,-0.00163074
0.048,-0.00285311
0.048,-0.00188888
0.05,-0.00129308
0.056,-0.00205092
0.060024,-0.00175115
0.064,-0.0022963
0.0664,-0.00246989
0.07,-0.00256086
0.072,-0.00285515
0.075,-0.00180598
0.08,-0.00124755
0.08,-0.00184077
0.088,-0.00262815
0.088,-0.00281454
0.088,-0.00664177
0.088,-0.00276765
0.0933333,-0.0010447
0.096,-0.00278297
0.1,-0.00149912
0.1,-0.00149912
0.1,-0.00166768
0.11039,-0.00290226
0.112,-0.00229778
0.12,-0.00201479
0.12,-0.00158405
0.125,-0.00396563
0.133333,-0.00222917
0.142857,-0.00288238
0.144,-0.00227479
0.144,-0.00552448
0.144,-0.00109967
0.148,-0.00417364
0.15,-0.00274915
0.152,-0.0026325
0.16,-0.00134481
0.16,-0.00212504
0.16,-0.00208101
0.16,-0.00290477
0.16,-0.00314607
0.166667,-0.00155893
0.172,-0.00124037
0.176,-0.0024344
0.178,-0.00130751
0.18,-0.00198023
0.18,-0.00340789
0.183908,-0.00106805
0.189394,-0.00186302
0.191667,-0.00126909
0.192,-0.00261342
0.2,-0.00149574
0.2,-0.00328424
0.2,-0.00105337
0.2,-0.00113846
0.2,-0.00306836
0.2,-0.00283614
0.2,-0.00178347
0.2,-0.00242589
0.2,-0.00124437
0.2,-0.00714047
0.2,-0.00304829
0.2,-0.00284771
0.2,-0.00670842
0.2,-0.00222677
0.21,-0.00257831
0.22,-0.0052721
0.228,-0.00100967
0.24,-0.00257381
0.24,-0.0019307
0.24,-0.00208662
0.244966,-0.00136198
0.244966,-0.00170535
0.246,-0.00143247
0.25,-0.00143188
0.25,-0.00267385
0.256,-0.00401428
0.26,-0.00258984
0.27,-0.00339476
0.28,-0.00332657
0.287977,-0.00304721
0.299963,-0.0030469
0.3,-0.00452168
0.3,-0.00128981
0.3,-0.00146998
0.3,-0.00135601
0.3,-0.00157057
0.3,-0.00219019
0.3,-0.00313908
0.303951,-0.00714137
0.3125,-0.0012175
0.32,-0.00125503
0.32,-0.00147362
0.32,-0.00152104
0.324333,-0.00122244
0.33,-0.00093507
0.333333,-0.00158531
0.336,-0.00133657
0.34,-0.00124603
0.34,-0.00121915
0.35,-0.00161889
0.351958,-0.00333695
0.36,-0.0026453
0.363,-0.00109383
0.372,-0.00250415
0.384,-0.00122187
0.384615,-0.00143596
0.4,-0.000841255
0.4,-0.00125118
0.4,-0.000887891
0.4,-0.00319111
0.4,-0.00284177
0.4,-0.00105845
0.4,-0.00155539
0.4,-0.00333539
0.4,-0.00131532
0.4,-0.00293862
0.4,-0.00101269
0.4,-0.00112487
0.415385,-0.00106461
0.42,-0.00204303
0.43,-0.00107078
0.44,-0.000879665
0.45,-0.00364323
0.45,-0.00723378
0.452632,-0.00179319
0.46,-0.00697561
0.479904,-0.00227418
0.48,-0.0038649
0.485437,-0.00258235
0.495283,-0.0026711
0.5,-0.00153468
0.5,-0.00142727
0.5,-0.00282547
0.5,-0.00376047
0.5,-0.00140708
0.5,-0.00148532
0.50104,-0.00106962
0.507614,-0.00123972
0.512,-0.00221067
0.51872,-0.00095377
0.520833,-0.00290415
0.52872,-0.00131592
0.533333,-0.00815144
0.542005,-0.000716575
0.55,-0.00161541
0.56,-0.000692548
0.571429,-0.00235919
0.575,-0.000737552
0.587,-0.00179352
0.6,-0.00107333
0.6,-0.00236933
0.6,-0.00207438
0.6,-0.00142294
0.616,-0.00151093
0.62,-0.00223525
0.64,-0.00436685
0.663415,-0.00227686
0.67,-0.000686807
0.69,-0.00864737
0.7,-0.00126354
0.72,-0.0021209
0.736,-0.00160808
0.753,-0.00203003
0.757576,-0.00116132
0.8,-0.000483872
0.8,-0.00742496
0.8,-0.000366103
0.8,-0.000218794
0.8,-0.00345685
0.8,-0.00264712
0.8,-0.00928817
0.816049,-0.000276722
0.867925,-0.00140554
0.88,-0.00931982
0.913,-0.00108409
0.93,-0.000196457
0.957,-0.00103453
1,-7.62068e-07
1.00694,-0.000199397
1.04,-0.00103897
1.0625,-0.0105393
1.1,-0.0154457
1.2,-0.00011055
1.25,-0.00123044
1.31,0.000673891
1.52,0.0025337
1.6,0.00224748
2,-0.0160154
2.0,0.0780652
2.0,0.0608729
2.17647,0.0196498
2.47667,0.0828292
3,0.0506946
3.2,0.0136068
8,0.00359866
12.8,0.002707
358.4,0.00522818

File: RHO_Crystallization temp.csv
Crystallization temp,SHAP value
0.0,0.000479659
30.0,0.000856344
65.0,0.0024341
80.0,0.000962089
90.0,0.00212273
90.0,0.056828
90.0,0.00215686
100.0,0.00112627
100.0,0.00271317
100.0,-0.0169844
100.0,0.00210213
100.0,0.00394065
100.0,0.00469187
100.0,0.00111068
100.0,0.000790037
100.0,0.000998795
100.0,0.0551969
100.0,0.00242129
100.0,0.00195004
100.0,0.00224948
100.0,0.00104196
100.0,-0.0172165
100.0,0.00238249
100.0,0.0027024
100.0,0.0011761
100.0,0.00111096
100.0,0.00216145
100.0,0.0010242
110.0,0.036178
110.0,-0.0020579
110.0,-0.000667151
110.0,0.000859065
110.0,-0.000583315
115.0,0.000833683
120.0,0.000710613
120.0,0.000336545
120.0,0.000511371
120.0,-0.000795408
120.0,0.000298488
125.0,0.000213749
125.0,1.35842e-05
125.0,2.67926e-05
130.0,0.00145731
130.0,0.000438197
135.0,0.000378849
135.0,8.0264e-05
135.0,0.00015677
135.0,5.81493e-05
135.0,4.81049e-05
135.0,0.000461962
135.0,4.99104e-05
135.0,0.000245261
138.0,-9.77973e-05
140.0,0.000326632
140.0,0.000308777
140.0,-4.20515e-05
140.0,0.000347828
140.0,0.000373021
140.0,0.000207815
140.0,0.00024328
140.0,9.84901e-05
140.0,2.78904e-06
140.0,3.21707e-05
140.0,0.000449075
140.0,0.000132011
140.0,0.000159553
140.0,0.000145919
140.0,8.00788e-06
140.0,8.90176e-05
140.0,0.000133068
142.5,-0.000398723
142.813,9.39951e-06
145.0,-0.000170777
147.732,-0.000207979
150.0,-0.000739769
150.0,-0.000264847
150.0,-0.000285677
150.0,-0.00119381
150.0,-0.000484997
150.0,-0.000134192
150.0,-0.000245595
150.0,-0.000611425
150.0,-0.000128351
150.0,-0.000434454
150.0,-0.000170468
150.0,-0.000379582
150.0,-0.000291643
150.0,-0.000280553
150.0,-0.000194333
150.0,-0.000120524
150.0,-0.000420737
150.0,-0.000233286
150.0,-0.000767467
150.0,-0.000428941
150.0,1.83285e-07
150.0,-0.00048133
150.0,-0.000233745
150.0,-0.000257324
150.0,-0.00029183
150.0,-0.000701136
150.0,-0.000248469
150.0,-0.000429283
150.0,-0.000238759
150.0,-0.0092443
150.0,-0.000420289
150.0,-0.000513095
150.0,-0.000275887
150.0,-0.00130767
150.0,-0.00100558
150.0,-0.000735359
150.0,-0.000664131
150.0,-0.000408103
150.0,-0.00115528
150.0,-0.000404617
158.0,-0.000767373
160.0,-0.000646332
160.0,-0.000430208
160.0,-0.000634451
160.0,-0.00045088
160.0,-0.000553531
160.0,-0.000504414
160.0,-0.00119329
160.0,-0.000281499
160.0,-0.000534937
160.0,-0.000703945
160.0,-0.000666708
160.0,-0.00039023
160.0,-0.00061836
160.0,-0.000880005
160.0,-0.000453234
160.0,-0.0011522
160.0,-0.00028486
160.0,-0.000489123
160.0,-0.000588504
160.0,-0.00344736
160.0,-0.000823821
160.0,-0.000698955
160.0,-0.00100687
160.0,-0.000335421
160.0,-0.000554153
160.0,-0.000861652
160.0,-0.000274197
160.0,-0.000191624
160.0,-0.0003504
160.0,-0.000664665
160.0,-0.000588638
160.0,-0.000343381
160.0,-0.000333689
160.0,-0.000572149
160.0,-0.000378746
160.0,-0.000938098
160.0,-0.000492631
160.0,-0.000512738
160.0,-0.000347537
160.0,-0.00042101
160.0,-0.000537019
160.0,-0.00055965
160.0,-0.000591594
160.0,-0.000409867
160.0,-0.000333689
160.0,-0.00065306
160.0,-0.000507076
160.0,-0.000564084
160.0,-0.000656165
160.0,-0.000495474
160.0,-0.00034193
160.0,-0.000624284
160.0,-0.00396148
160.0,-0.000559591
160.0,-0.000395367
160.0,-0.000320169
160.0,-0.000556668
160.0,-0.000581608
160.0,-0.000327847
160.0,-0.000282357
160.0,-0.000282357
160.0,-0.000370843
160.0,-0.000707735
160.0,-0.000351043
160.0,-0.000551047
165.0,-0.000404509
165.0,-0.00314444
170.0,-0.000567372
170.0,-0.000592824
170.0,-0.000594213
170.0,-0.000482744
170.0,-0.000361422
170.0,-0.00261121
170.0,-0.000530732
170.0,-0.00174538
170.0,-0.00058827
170.0,-0.00759383
170.0,-0.00242572
170.0,-0.000517976
170.0,-0.00126147
170.0,-0.000482237
170.0,-0.000389833
170.0,-0.000732469
170.0,-0.000342115
170.0,-0.000458231
170.0,-0.00149855
170.0,-0.00139435
170.0,-0.000984253
170.0,-0.00100443
170.0,-0.000382287
170.0,-0.000539374
170.0,-0.000462093
175.0,-0.00279705
175.0,-0.000610929
175.0,-0.000337135
175.0,-0.000407647
175.0,-0.000419865
175.0,-0.000496674
175.0,-0.00086284
175.0,-0.000647711
175.0,-0.000679862
175.0,-0.00060481
175.0,-0.00032984
175.0,-0.00067643
175.0,-0.000352586
175.0,-0.000353343
175.0,-0.000623784
175.0,-0.000531708
175.0,-0.000341866
175.0,-0.000648859
175.0,-0.000507185
175.0,-0.000538024
175.0,-0.0030187
175.0,-0.000600716
175.0,-0.000628751
175.0,-0.000917656
175.0,-0.000540911
175.0,-0.000433703
175.0,-0.000376991
175.0,-0.000335147
175.0,-0.000326411
175.0,-0.000522411
175.0,-0.000392829
175.0,-0.000586868
175.0,-0.000630858
175.0,-0.000402832
175.0,-0.000657783
175.0,-0.00131131
175.0,-0.0003154
180.0,-0.000758227
180.0,-0.00076032
180.0,-0.00150238
180.0,-0.000607458
180.0,-0.000592464
180.0,-0.000559028
180.0,-0.000260823
180.0,-0.000793138
180.0,-0.000831743
180.0,-0.00129303
180.0,-0.000290783
180.0,-0.00163764
180.0,-0.000513202
180.0,-0.000738793
190.0,-0.000673975
190.0,-0.000729937
190.0,-0.000716496
200.0,-0.000477319
200.0,-0.000368219
214.891,-0.000595964
500.0,-0.000786195