Folder: zeosyn_dataset/KFI-RHO-LTA-UFI_paper/dependence_plot_data

Note: KFI-RHO-LTA-UFI_paper/README.md
# Paper title

This is SHAP analysis for official repository of

[**Data-Driven SDA Design and High-Throughput Experimentation for the Synthesis of High-Silica Small-Pore Zeolites Containing lta-cavities**](url) **(Under review)**

Authors: Hwajun Lee1†‡, Soonhyoung Kwon1†§, Alexander Hoffman2, Jie Zhu1, Mingrou Xie1, Elton Pan2, Vivek Vattipalli3, Ahmad Moini3, Anthony Debellis4, Elsa Olivetti2, Rafael Gómez-Bombarelli2*, Yuriy Román-Leshkov1*

Affiliations:

1Department of Chemical Engineering, Massachusetts Institute of Technology, Cambridge MA 02139, USA.

2Department of Materials Science and Engineering, Massachusetts Institute of Technology, Cambridge MA 02139, USA.

3BASF Environmental Catalyst and Metal Solutions, Iselin, New Jersey 08830, United States

4BASF Quantum Chemistry and Hybrid Modeling Research, Tarrytown, New York 10591, United States

*Corresponding authors: rafagb@mit.edu, yroman@mit.edu

†These authors contributed equally to this work.

‡Present address: Extreme Materials Research Center, Korea Institute of Science and Technology, KIST, Seoul 02792, Republic of Korea. Division of Energy and Environment Technology, KIST School, Korea University of Science and Technology, Seoul 02792, Republic of Korea.

§Present address: Department of Chemical Engineering, Purdue University, West Lafayette, IN 47907, USA.

# Installation
Please refer to the main page at [here](https://github.com/eltonpan/zeosyn_dataset/tree/master)

File: KFI_Crystallization temp.csv
Crystallization temp,SHAP value
0.0,0.000121776
30.0,-0.000645727
65.0,0.000471466
80.0,0.00104145
90.0,0.000380833
90.0,-0.000547274
90.0,0.000390572
100.0,0.000526976
100.0,0.000296419
100.0,-0.00343414
100.0,0.00242959
100.0,0.00173499
100.0,0.00115164
100.0,0.000442006
100.0,0.000101375
100.0,0.000516887
100.0,0.00308615
100.0,0.00155882
100.0,0.001738
100.0,0.000201671
100.0,0.000145271
100.0,-0.00343119
100.0,0.000769018
100.0,0.0019313
100.0,0.00088739
100.0,0.000224858
100.0,0.00132639
100.0,0.000410833
110.0,-0.00383764
110.0,-0.000268655
110.0,-0.00316522
110.0,7.2398e-06
110.0,-0.00438251
115.0,0.000237234
120.0,0.000475395
120.0,-6.41587e-05
120.0,0.00054931
120.0,0.000576923
120.0,0.000319207
125.0,0.000201142
125.0,0.000163514
125.0,0.000165659
130.0,0.000482421
130.0,0.000750269
135.0,0.000761707
135.0,0.000400062
135.0,0.000414566
135.0,0.000438722
135.0,0.000316736
135.0,0.000486637
135.0,0.000439321
135.0,0.00049761
138.0,0.000310193
140.0,0.000280086
140.0,0.000415435
140.0,0.0001254
140.0,0.000209444
140.0,0.000481637
140.0,0.000552445
140.0,0.000546447
140.0,0.000277908
140.0,0.000235243
140.0,0.000345624
140.0,0.000277845
140.0,0.000255034
140.0,0.000293286
140.0,0.000482526
140.0,0.000237916
140.0,0.000407521
140.0,0.000208625
142.5,0.000596898
142.813,0.000439907
145.0,0.000558598
147.732,0.000421011
150.0,0.000430729
150.0,0.00046991
150.0,0.000527206
150.0,0.000350715
150.0,0.000379349
150.0,0.000668986
150.0,0.000492015
150.0,0.000701798
150.0,0.000782035
150.0,0.000364902
150.0,0.00234511
150.0,0.000475063
150.0,0.000408973
150.0,0.000466523
150.0,0.000333836
150.0,0.000514907
150.0,0.000261857
150.0,0.00048831
150.0,0.000334082
150.0,0.000851155
150.0,0.000452659
150.0,0.000190635
150.0,0.000446136
150.0,0.000572983
150.0,0.000397775
150.0,0.000213276
150.0,0.00048757
150.0,0.000597001
150.0,0.000370781
150.0,0.000837305
150.0,0.000258343
150.0,0.00165022
150.0,0.000466444
150.0,0.0618044
150.0,0.000334239
150.0,0.000290593
150.0,0.000195979
150.0,0.000257063
150.0,0.000944177
150.0,0.000202765
158.0,0.000198033
160.0,0.000296235
160.0,0.000159759
160.0,0.000164368
160.0,5.34776e-05
160.0,0.0001205
160.0,0.000190574
160.0,0.000768057
160.0,0.000201839
160.0,9.72118e-05
160.0,-2.95693e-05
160.0,0.000698735
160.0,0.000589087
160.0,0.000117745
160.0,0.000697084
160.0,0.000157204
160.0,0.000140711
160.0,0.000624777
160.0,0.000277014
160.0,0.000130966
160.0,-0.000109682
160.0,-1.21798e-05
160.0,0.000315972
160.0,-0.000316892
160.0,0.000292418
160.0,0.00020758
160.0,0.000590933
160.0,0.000448394
160.0,0.000214276
160.0,0.000196672
160.0,0.000405512
160.0,0.000175374
160.0,-3.28619e-06
160.0,0.000563093
160.0,0.000120161
160.0,0.000485628
160.0,0.000473396
160.0,0.000358619
160.0,0.000920342
160.0,0.000231879
160.0,0.000294484
160.0,0.000444499
160.0,0.000124414
160.0,0.000116806
160.0,0.000281905
160.0,0.000563093
160.0,0.000117462
160.0,0.000168194
160.0,9.30543e-05
160.0,0.000119
160.0,0.000275839
160.0,-0.000140831
160.0,0.000318045
160.0,-0.000217348
160.0,0.000391886
160.0,7.05209e-05
160.0,0.000333751
160.0,0.000533294
160.0,0.000231716
160.0,0.00030953
160.0,0.000625031
160.0,0.000624627
160.0,-2.30195e-05
160.0,0.000168513
160.0,0.00025324
160.0,0.000506397
165.0,0.000332109
165.0,-6.84174e-05
170.0,0.000331806
170.0,0.000276613
170.0,8.41885e-05
170.0,0.000199449
170.0,3.4186e-05
170.0,0.00079406
170.0,-0.000129335
170.0,-7.76731e-05
170.0,-0.000104385
170.0,-9.48119e-05
170.0,-9.49176e-05
170.0,2.69617e-05
170.0,4.62493e-05
170.0,0.000119105
170.0,0.000110524
170.0,-0.00021804
170.0,0.000216326
170.0,4.01996e-05
170.0,-0.000672863
170.0,-0.000181065
170.0,-0.000510726
170.0,-0.00171294
170.0,0.000133626
170.0,0.000452666
170.0,4.16205e-05
175.0,-0.00087483
175.0,5.04482e-05
175.0,0.000123261
175.0,-0.000406988
175.0,7.24502e-05
175.0,0.00013488
175.0,-0.000125858
175.0,0.000116445
175.0,3.37593e-05
175.0,8.91134e-05
175.0,0.000102074
175.0,3.06657e-05
175.0,0.000150281
175.0,0.000145042
175.0,0.000220964
175.0,0.000304523
175.0,0.000151862
175.0,0.000110579
175.0,0.000141228
175.0,0.000128688
175.0,3.18719e-05
175.0,0.000120917
175.0,3.99861e-05
175.0,2.12102e-05
175.0,1.6139e-05
175.0,8.65011e-05
175.0,-1.42767e-05
175.0,0.000123481
175.0,-8.36339e-05
175.0,0.000142791
175.0,7.38439e-05
175.0,-0.000119058
175.0,4.64013e-05
175.0,8.76504e-05
175.0,-2.07071e-06
175.0,0.000196823
175.0,0.00045195
180.0,-4.87756e-05
180.0,3.86102e-05
180.0,-0.000461748
180.0,3.15994e-05
180.0,2.78481e-05
180.0,0.000109776
180.0,0.00011569
180.0,1.83901e-05
180.0,4.21572e-05
180.0,-4.77352e-05
180.0,0.000109041
180.0,-7.86776e-05
180.0,-0.000290998
180.0,0.000210654
190.0,-9.99113e-06
190.0,-9.2595e-05
190.0,-4.51385e-05
200.0,-0.000317837
200.0,-2.0349e-05
214.891,1.63932e-05
500.0,-0.000167328

File: KFI_H2OSi.csv
H$_2$O/Si,SHAP value
0.0,-0.00123282
0.0,5.64882e-05
0.0,0.000261111
0.0,0.00019875
0.0,0.000372616
0.0,0.000174624
0.0,4.80817e-05
0.0,9.30749e-05
0.0,0.000178939
0.0,0.000123225
0.0,-0.000109793
0.0,0.000179813
0.0,0.000136037
0.0,5.51985e-05
0.388889,0.000266643
1.0,0.0015012
1.80072,-0.000120124
2.04082,0.000239727
2.13333,0.000154417
2.5,0.000120407
2.85714,0.000137906
3.0,0.000165956
3.06,0.000309349
3.29997,0.000224808
3.3,0.000167854
3.75,0.000149956
4.21053,0.000309185
4.54545,0.000324537
4.54545,0.000219218
4.74716,0.000282461
4.78723,0.000286659
4.89362,0.00060706
5,0.000355407
5,0.0002684
5,0.000445113
5,0.000255082
5.0,0.00019906
5.0,0.000339106
5,0.000391278
5,0.000216372
5,0.000534599
5.01667,0.000227966
5.17857,0.000385098
5.33333,0.000247634
5.6,0.000191303
5.9727,0.000316966
6.25,0.00197332
6.66667,0.00193943
7,0.000464864
7.0,0.00104863
7,0.000319747
7.25,0.000209197
7.5,0.000343745
7.69992,0.000326705
7.69992,0.00030457
8.16667,0.000255152
8.75,0.00161617
9.0,0.00112936
9.5,0.000580453
9.82,0.000163012
10,0.000503768
10.0,-0.00142323
10.0,8.536e-05
10.0,5.80219e-05
10.0,0.000533017
10.0,0.00020591
10.0,-0.00145893
10.0,5.80219e-05
10,-0.00180506
10,5.22297e-05
10.5042,6.34346e-05
10.6061,2.70364e-05
10.6667,5.57132e-05
10.673,0.000563255
11.0,3.0411e-05
11.3,0.000183208
11.6,-0.000239418
11.9585,0.000114565
12.3457,8.21586e-05
12.6875,8.46973e-05
13,0.000147768
13.5,0.000743405
13.6459,-0.00083934
14,-0.000700687
14.0,-0.00157286
14.0,-0.00044342
14.7059,0.00293489
15,1.08942e-05
15,6.39294e-05
15,8.95553e-05
15,0.000197851
15,8.92868e-05
15.0,0.000116142
15.0,0.000123748
15.0,9.96403e-05
15.0,7.97492e-05
15.0,7.57696e-05
15,8.37154e-05
15,0.00013869
15,0.000506843
15.5,0.000118695
15.8,-0.00388454
16.0,0.000622808
16,0.0286243
16.4998,0.000233533
16.4998,0.000325984
16.6667,-0.00112868
16.6667,0.000154152
16.6667,0.000146621
17.5,-4.08969e-05
18.0,0.000126968
19.2,0.000128127
19.5,0.000208808
19.5,0.000185576
20,0.00013295
20,-6.04857e-05
20,0.000316687
20,0.000185538
20,8.402e-05
20.0,7.68747e-05
20.0,0.000151492
20.0,0.000146951
20.0,0.00010334
20.0,0.000140711
20,-0.00230205
20,-6.31395e-06
20,-0.000815248
20.4,0.000137411
21,0.000165583
21.135,0.000163607
22,0.000143621
22.5,0.000101441
22.7273,0.000220626
23.5189,-0.0030911
23.8095,-0.000269246
24.434,0.000101194
25,0.000250907
25,0.000103204
25.0,5.44056e-05
25,4.45325e-05
26.0,0.000177292
27,4.53304e-05
27.9444,-9.11102e-05
28,7.35928e-05
30,0.000121102
30,8.02802e-05
30,-4.20959e-05
30,-6.14921e-05
30,7.26901e-06
30,6.31748e-05
30,2.57523e-05
30,8.69863e-05
30,0.000226007
30,6.83122e-05
30,0.000203704
30.0,-2.53559e-05
30.0,0.000233911
30.0,5.21301e-05
30.0,2.34695e-05
30.0,-2.6223e-06
30.0,5.75935e-05
30.0,3.36172e-05
30,9.79405e-06
30,-0.000132097
30,5.29621e-05
30,0.000124942
30,-7.60874e-06
30,2.7591e-05
30,0.000341903
30,-8.82204e-06
30,0.00021537
30.45,0.000139515
31,0.000182805
31.2,4.62732e-05
33.2,-0.000485721
35,6.82947e-06
35,3.065e-05
35,-0.00010685
35,6.46934e-06
35.0,-0.00017579
35.0,-0.00024038
35,-0.000134155
35.04,-6.09993e-05
35.5625,0.000102697
36,0.000131853
36.7816,2.37089e-05
37.182,-0.000169616
37.8788,-2.88894e-05
38.0711,3.5412e-05
38.6287,-3.56047e-05
40,-8.66159e-07
40,-0.000165466
40,-9.78162e-05
40,-0.00124503
40,-0.00100599
40,2.24533e-05
40.0,3.76411e-05
40.0,4.14161e-06
40.0,3.76411e-05
40.0,5.07359e-08
40.0,-8.03027e-05
40.0,-0.000125988
40.0,-0.000121149
40.0,-0.000141341
40.0,-6.33716e-05
40.0,-0.000149018
40,-0.000191001
40,-0.00117278
40,-0.000176901
40,-0.000191941
40,5.07864e-06
40,-2.4463e-05
40,-0.00012949
40,-2.10413e-05
40,-0.000118616
40,6.55723e-05
40.3297,-0.000188335
40.8889,-0.000210978
41.5,-5.81249e-05
42,-0.000104032
42,-5.07769e-06
42.0,-9.42337e-05
42.3077,1.12714e-05
43.5714,-9.31603e-05
43.7584,2.73263e-05
43.7584,3.40824e-05
44,3.38538e-05
44.0,-1.57017e-05
44,1.74019e-05
45,-6.89134e-05
45.0,-7.90379e-05
45.0,-2.4936e-05
45,7.76033e-06
45,-0.000170015
45.4545,-0.00156434
45.4545,-3.18478e-05
45.72,-0.000302272
47,2.51757e-05
50,-2.43796e-05
50,-0.000115334
50,-0.000206273
50,-0.000114875
54,-2.59656e-05
57,-7.85749e-06
58.6538,-9.99031e-06
60,0.000563985
60,7.41037e-05
60,2.86687e-05
64,0.000112994
68.8119,-0.00641885
76.9231,-0.00155664
84,-0.000775281
95,6.83343e-05
100,-0.00070545
100.0,-0.000149222
100.0,-0.000368916
100,-0.000521323
108.824,0.00136319
120.0,-0.000170008
136.25,-0.0023131
174.0,-0.000886083
200.0,-0.000241128
250,4.79768e-05
410,-0.000679856
714.286,0.000164249

File: KFI_KSi.csv
K/Si,SHAP value
0.0,-0.00310245
0.0,-0.00142423
0.0,-0.000844605
0.0,-0.000701737
0.0,-0.0012359
0.0,-0.000703598
0.0,-0.000674591
0.0,-0.000703528
0.0,-0.000716603
0.0,-0.00100441
0.0,-0.000835676
0.0,-0.000412335
0.0,-0.000833168
0.0,-0.00459015
0.0,-0.00106029
0.0,-0.000564247
0.0,-0.000546922
0.0,-0.000711049
0.0,-0.000682856
0.0,-0.000703724
0.0,-0.000620618
0.0,-0.000648348
0.0,-0.000490668
0.0,-0.000892489
0.0,-0.000716603
0.0,-0.000480044
0.0,-0.00111341
0.0,-0.000678048
0.0,-0.00334462
0.0,-0.00126385
0.0,-0.000890204
0.0,-0.000843179
0.0,-0.000763221
0.0,-0.00818038
0.0,-0.000625653
0.0,-0.000475469
0.0,-0.000752316
0.0,-0.000860246
0.0,-0.000711894
0.0,-0.000769819
0.0,-0.000882954
0.0,-0.000615778
0.0,-0.000874417
0.0,-0.000706239
0.0,-0.0010688
0.0,-0.000668896
0.0,-0.000465284
0.0,-0.00108523
0.0,-0.000639411
0.0,-0.000661744
0.0,-0.000778985
0.0,-0.00046429
0.0,-0.000786315
0.0,-0.000687499
0.0,-0.00125243
0.0,-0.00108575
0.0,-0.000562065
0.0,-0.000885262
0.0,-0.000565454
0.0,-0.000977053
0.0,-0.000460185
0.0,-0.000648515
0.0,-0.000481903
0.0,-0.000676682
0.0,-0.00135685
0.0,-0.000601962
0.0,-0.00110618
0.0,-0.000435023
0.0,-0.000873911
0.0,-0.000452735
0.0,-0.000735643
0.0,-0.000622447
0.0,-0.000504275
0.0,-0.000473914
0.0,-0.00129457
0.0,-0.000743807
0.0,-0.000649816
0.0,-0.00105828
0.0,-0.0026516
0.0,-0.000661697
0.0,-0.00108619
0.0,-0.000469848
0.0,-0.000681361
0.0,-0.000448535
0.0,-0.00164257
0.0,-0.000613732
0.0,-0.000672925
0.0,-0.000930741
0.0,-0.00169773
0.0,-0.000764216
0.0,-0.00159462
0.0,-0.000465525
0.0,-0.000655621
0.0,-0.000803095
0.0,-0.00182466
0.0,-0.00108179
0.0,-0.000415586
0.0,-0.000701273
0.0,-0.000853424
0.0,-0.000704075
0.0,-0.00165612
0.0,-0.000652881
0.0,-0.000544014
0.0,-0.000599527
0.0,-0.000665494
0.0,-0.000650932
0.0,-0.000879404
0.0,-0.00072216
0.0,-0.000635347
0.0,-0.000796121
0.0,-0.000827907
0.0,-0.000672912
0.0,-0.000700908
0.0,-0.000530728
0.0,-0.000554151
0.0,-0.000715039
0.0,-0.00076823
0.0,-0.000906888
0.0,-0.00104658
0.0,-0.0010122
0.0,-0.000604432
0.0,-0.000691592
0.0,-0.000468759
0.0,-0.000987531
0.0,-0.000943479
0.0,-0.000588619
0.0,-0.00326211
0.0,-0.0119395
0.0,-0.000588242
0.0,-0.000478645
0.0,-0.000460367
0.0,-0.000715951
0.0,-0.00207406
0.0,-0.000703766
0.0,-0.000513064
0.0,-0.000718584
0.0,-0.000770885
0.0,-0.00233375
0.0,-0.000446201
0.0,-0.000493508
0.0,-0.000805749
0.0,-0.000471965
0.0,-0.000948267
0.0,-0.000830738
0.0,-0.00080746
0.0,-0.00109936
0.0,-0.000722492
0.0,-0.000735875
0.0,-0.000780086
0.0,-0.00111339
0.0,-0.000700081
0.0,-0.00487701
0.0,-0.00110696
0.0,-0.000751397
0.0,-0.000697165
0.0,-0.000668319
0.0,-0.000681063
0.0,-0.000510899
0.0,-0.00112652
0.0,-0.000543916
0.0,-0.000567114
0.0,-0.000618696
0.0,-0.00265293
0.0,-0.00080874
0.0,-0.000486225
0.0,-0.00140094
0.0,-0.000569477
0.0,-0.000577646
0.0,-0.000788166
0.0,-0.000743755
0.0,-0.000643565
0.0,-0.000816512
0.0,-0.00075249
0.0,-0.00265293
0.0,-0.000773444
0.0,-0.000909661
0.0,-0.000657291
0.0,-0.00113351
0.0,-0.00198935
0.0,-0.000494639
0.0,-0.000703443
0.0,-0.00438877
0.0,-0.00131163
0.0,-0.000732759
0.0,-0.000707116
0.0,-0.000613592
0.0,-0.000791178
0.0,-0.000468325
0.0,-0.000829659
0.0,-0.000839362
0.0,-0.00109698
0.0,-0.000581139
0.0,-0.000594151
0.0,-0.000692383
0.0,-0.00110473
0.0,-0.000724226
0.0,-0.00159462
0.0,-0.00128818
0.0,-0.00112556
0.0,-0.000655066
0.0,-0.00114173
0.0,-0.00598579
0.0,-0.000676093
0.0,-0.000751207
0.0,-0.000560057
0.0,-0.000454663
0.0,-0.000498183
0.0,-0.000655794
0.0,-0.000754675
0.0,-0.0121164
0.0,-0.000477762
0.0,-0.000669645
0.0,-0.000792869
0.0,-0.000523005
0.0,-0.000518737
0.0,-0.000420982
0.0,-0.000626559
0.0,-0.00152652
0.0,-0.00113148
0.0,-0.001305
0.0,-0.000406829
0.00285714,-0.000571213
0.04,-0.000382298
0.05,-0.000651144
0.055,-1.32444e-05
0.06875,1.89422e-05
0.1,-0.000785817
0.1,-0.00116319
0.119697,-6.61661e-06
0.132013,0.00551711
0.15,-0.000191293
0.154,0.000338035
0.154991,0.000629156
0.166667,2.06173e-05
0.174948,0.000230589
0.18,0.000221203
0.189394,7.39739e-05
0.2,-0.000313421
0.2,-0.000167107
0.2,0.000383382
0.2,-0.000116712
0.2,-0.000257083
0.2,-0.000442321
0.25,0.00134967
0.299963,0.0646452
0.3,0.000450227
0.3,0.000944544
0.335,0.0250766
0.36,0.00107725
0.372,0.00161195
0.375,0.00121231
0.4,0.00300529
0.445,0.0767694
0.454545,0.00349963
0.5,0.0140036
0.6,0.0120621
0.666667,0.00293189
0.73,0.00225236
0.78,0.00235061
0.78,0.00129891
0.8,0.0022788
1.0395,0.00183793
1.75439,-0.000957
6,0.0015971
448,0.0022521

File: KFI_OHSi.csv
OH/Si,SHAP value
0.0,-0.000725379
0.0,-0.000194538
0.0,-0.00048863
0.0,-0.00143921
0.0,-0.000352407
0.0,-0.000536078
0.0,-0.000229744
0.0,-0.000513202
0.0,-0.00045742
0.0,-0.000685194
0.0,-0.00285166
0.0,-0.000642268
0.0,-0.000373088
0.0,-0.000288188
0.0,-0.000306534
0.0,-0.000389528
0.0,-0.000367187
0.0,-0.000426837
0.0,-0.000360931
0.0,-0.000364676
0.0,-0.000297281
0.0,-0.00016098
0.0,-0.0008112
0.0,-0.000335337
0.0,-0.000359365
0.0,-0.00274783
0.0,-0.000367459
0.0,-0.00139921
0.0,-0.000331183
0.0,-0.000223616
0.0,-0.000266949
0.0,-0.000406809
0.0,-0.000398902
0.0,-0.000348427
0.0,-0.000466277
0.0,-0.000358098
0.0,-0.000485121
0.0,-0.000875251
0.0,-0.000478468
0.0,-0.000600819
0.0,-0.000766194
0.0,-0.000427809
0.0,-0.00142106
0.0,-0.00022347
0.0,-0.000406984
0.0,-0.00037902
0.0,-0.000460886
0.0,-0.000348546
0.0,-0.000337262
0.0,-0.000339525
0.0,-0.000335337
0.0,-0.000402542
0.0,-0.000483954
0.0,-0.000432469
0.0,-0.000427742
0.0,-0.000466664
0.0,-0.00034012
0.0,-0.000400559
0.0,-0.000373088
0.00260833,-0.000325854
0.016,-0.000307891
0.02,-0.00134339
0.024,-0.000284013
0.024,-0.000318622
0.0313,-0.000294594
0.036,-0.000585077
0.04,-0.000240654
0.04,-0.000285692
0.0420875,-0.000558858
0.048,-0.000380647
0.048,-0.000300638
0.05,-0.000449808
0.056,-0.000279416
0.060024,-0.000545401
0.064,-0.000468857
0.0664,-0.000422898
0.07,-0.000352288
0.072,-0.000357105
0.075,-0.00506854
0.08,-0.000429129
0.08,-0.000324976
0.088,-0.000342865
0.088,-0.000306253
0.088,-0.000146349
0.088,-0.000283026
0.0933333,-0.000450352
0.096,-0.000276804
0.1,-0.000470338
0.1,-0.000470338
0.1,-0.000518364
0.11039,-0.000178945
0.112,-0.000230989
0.12,-0.000255665
0.12,-0.000297852
0.125,-0.000150488
0.133333,-0.000675072
0.142857,-0.000230026
0.144,-0.00020339
0.144,0.000278001
0.144,-0.000296251
0.148,-1.92751e-05
0.15,-9.56228e-05
0.152,-0.000242109
0.16,-0.000349049
0.16,-0.000244171
0.16,-0.000254725
0.16,-0.000192459
0.16,-0.000387432
0.166667,-0.000228868
0.172,-0.000243146
0.176,-0.000140385
0.178,-0.000226168
0.18,-0.000247567
0.18,0.000143785
0.183908,-0.000384785
0.189394,0.0017188
0.191667,-0.000580899
0.192,-0.000236492
0.2,-0.0002892
0.2,-0.000202747
0.2,-0.000530773
0.2,-0.000332168
0.2,-0.000134251
0.2,-0.000138896
0.2,-0.000222713
0.2,-0.000217369
0.2,-0.000410791
0.2,-0.000122821
0.2,-7.37654e-05
0.2,-0.000135093
0.2,-3.23984e-05
0.2,-0.000124002
0.21,-0.000276357
0.22,-0.000110838
0.228,-0.000434373
0.24,-0.00017719
0.24,-0.000115342
0.24,-8.76578e-05
0.244966,-0.000355415
0.244966,-0.000249571
0.246,-0.000337156
0.25,-0.000511907
0.25,-9.01048e-05
0.256,-6.68879e-05
0.26,0.000580086
0.27,-4.26522e-05
0.28,0.000123322
0.287977,-8.09813e-05
0.299963,0.0417579
0.3,-7.05751e-05
0.3,-0.000268848
0.3,-0.000313326
0.3,-0.000230054
0.3,-0.000181083
0.3,-0.000209935
0.3,-6.46328e-05
0.303951,0.000535609
0.3125,-0.000510902
0.32,-0.000251283
0.32,-0.000321459
0.32,-0.000266101
0.324333,-0.000192904
0.33,-0.000513612
0.333333,-0.00015513
0.336,-0.00283309
0.34,-0.000185831
0.34,-0.000182083
0.35,-0.000220947
0.351958,-9.13186e-05
0.36,-0.000170649
0.363,-5.35109e-05
0.372,-0.000494734
0.384,-0.00222014
0.384615,8.25629e-05
0.4,0.000234339
0.4,0.000183327
0.4,0.000222191
0.4,0.00250268
0.4,0.000193369
0.4,0.000173539
0.4,0.000125385
0.4,0.000181559
0.4,6.64976e-05
0.4,0.0197166
0.4,8.86002e-05
0.4,0.000350357
0.415385,1.10905e-05
0.42,0.000335815
0.43,0.000189495
0.44,6.48403e-05
0.45,0.000367291
0.45,0.000553356
0.452632,0.000281572
0.46,0.00070986
0.479904,-0.000479074
0.48,0.000547958
0.485437,0.000842079
0.495283,0.000811481
0.5,0.000762214
0.5,0.00110193
0.5,0.000592358
0.5,0.000489565
0.5,0.000750259
0.5,0.000786703
0.50104,0.000617283
0.507614,0.00112247
0.512,0.000905701
0.51872,0.000597294
0.520833,0.000753088
0.52872,0.00045102
0.533333,0.000876388
0.542005,0.000742434
0.55,0.000714247
0.56,0.000937422
0.571429,0.00076047
0.575,0.00130306
0.587,0.000600199
0.6,0.000635987
0.6,0.000756224
0.6,-9.68975e-05
0.6,0.000528658
0.616,0.000497678
0.62,0.000309468
0.64,-0.0012389
0.663415,0.000271941
0.67,0.000756748
0.69,0.000669491
0.7,0.000729278
0.72,0.000399914
0.736,0.000904828
0.753,0.000502213
0.757576,0.000654034
0.8,0.000871675
0.8,0.000730794
0.8,0.00073552
0.8,0.000777602
0.8,0.000433638
0.8,-0.00201358
0.8,0.000418052
0.816049,0.000767778
0.867925,0.000598567
0.88,0.00035355
0.913,0.000416419
0.93,0.000871766
0.957,0.000484824
1,0.00100248
1.00694,0.00083247
1.04,0.000470122
1.0625,0.000668731
1.1,0.00035886
1.2,0.00104349
1.25,0.000610654
1.31,0.000281586
1.52,0.00129131
1.6,0.00143919
2,0.000151309
2.0,0.000273998
2.0,0.000209828
2.17647,-0.000706074
2.47667,7.28466e-05
3,0.000236993
3.2,0.000503003
8,0.000370537
12.8,8.87178e-05
358.4,0.000642902

File: KFI_SrSi.csv
Sr/Si,SHAP value
0.0,-0.00159539
0.0,-0.00030524
0.0,-0.000898065
0.0,-0.00033791
0.0,-0.000237888
0.0,-0.000369267
0.0,-0.000291255
0.0,-0.000233511
0.0,-0.000694671
0.0,-0.000322245
0.0,-0.000377749
0.0,-0.000333468
0.0,-0.000198371
0.0,-0.000185534
0.0,-0.000208726
0.0,-0.000288326
0.0,-0.000324942
0.0,-0.000265009
0.0,-0.000242411
0.0,-0.000286963
0.0,-0.000289039
0.0,-0.000213278
0.0,-0.000404888
0.0,-0.000317785
0.0,-0.000501446
0.0,-0.000281661
0.0,-0.000570894
0.0,-0.000546126
0.0,-0.000223311
0.0,-0.000371796
0.0,-0.000254519
0.0,-0.000263713
0.0,-0.000305886
0.0,-0.000438489
0.0,-0.000470789
0.0,-0.000357039
0.0,-0.000567759
0.0,-0.000303029
0.0,-0.00208484
0.0,-0.000558587
0.0,-0.00049953
0.0,-0.00156755
0.0,-0.000354288
0.0,-0.000299028
0.0,-0.000273944
0.0,-0.000242364
0.0,-0.000207788
0.0,-0.000226463
0.0,-0.00034309
0.0,-0.000609892
0.0,-0.000255389
0.0,-0.000259362
0.0,-0.00039077
0.0,-0.000341316
0.0,-0.000652879
0.0,-0.000423855
0.0,-0.000415488
0.0,-0.000265671
0.0,-0.000352732
0.0,-0.00048076
0.0,-0.000237216
0.0,-0.000543588
0.0,-0.000257491
0.0,-0.000320167
0.0,-0.000340225
0.0,-0.00210326
0.0,-0.000271208
0.0,-0.000341672
0.0,-0.000210609
0.0,-0.000353573
0.0,-0.00103918
0.0,-0.000415289
0.0,-0.000709027
0.0,-0.000419757
0.0,-0.000481068
0.0,-0.000184583
0.0,-0.00024596
0.0,-0.000381103
0.0,-0.00031189
0.0,-0.000207788
0.0,-0.000198054
0.0,-0.000411146
0.0,-0.000366384
0.0,-0.000232707
0.0,-0.000305287
0.0,-0.000249839
0.0,-0.00083321
0.0,-0.000352039
0.0,-0.000270311
0.0,-0.000200279
0.0,-0.000218538
0.0,-0.000787964
0.0,-0.000285729
0.0,-0.00052578
0.0,-0.00039363
0.0,-0.000241471
0.0,-0.000220394
0.0,-0.00145555
0.0,-0.000548559
0.0,-0.000315231
0.0,-0.000211019
0.0,-0.00122294
0.0,-0.000420886
0.0,-0.000369386
0.0,-0.00209961
0.0,-0.00060805
0.0,-0.000255631
0.0,-0.000437682
0.0,-0.000314671
0.0,-0.000306424
0.0,-0.000193367
0.0,-0.000326314
0.0,-0.000240915
0.0,-0.000660963
0.0,-0.000231783
0.0,-0.000201864
0.0,-0.000322227
0.0,-0.00524439
0.0,-0.000845149
0.0,-0.00024601
0.0,-0.000199151
0.0,-0.000570367
0.0,-0.000234376
0.0,-0.000466301
0.0,-0.000571052
0.0,-0.000330453
0.0,-0.000351542
0.0,-0.000437326
0.0,-0.000581421
0.0,-0.000448319
0.0,-0.000619372
0.0,-0.000299028
0.0,-0.00038774
0.0,-0.000177126
0.0,-0.000255861
0.0,-0.000263688
0.0,-0.000451242
0.0,-0.00107927
0.0,-0.000501194
0.0,-0.000459507
0.0,-0.00136998
0.0,-0.000232253
0.0,-0.000296921
0.0,-0.00021936
0.0,-0.00175887
0.0,-0.000281677
0.0,-0.000225332
0.0,-0.000215192
0.0,-0.000255631
0.0,-0.000212243
0.0,-0.000302976
0.0,-0.000205623
0.0,-0.000431097
0.0,-0.000887869
0.0,-0.0011819
0.0,-0.000316627
0.0,-0.000452341
0.0,-0.000263688
0.0,-0.000363201
0.0,-0.000288637
0.0,-0.000363821
0.0,-0.000348176
0.0,-0.000280473
0.0,-0.000351743
0.0,-0.000172416
0.0,-0.000326529
0.0,-0.000208673
0.0,-0.000326911
0.0,-0.000259677
0.0,-0.000244692
0.0,-0.000295059
0.0,-0.000236934
0.0,-0.000221848
0.0,-0.000481558
0.0,-0.000411618
0.0,-0.00019311
0.0,-0.000237587
0.0,-0.000289538
0.0,-0.000433175
0.0,-0.000425703
0.0,-0.000272719
0.0,-0.000202542
0.0,-0.000221891
0.0,-0.0002534
0.0,-0.000239445
0.0,-0.000315291
0.0,-0.00264945
0.0,-0.000488212
0.0,-0.00022851
0.0,-0.00032481
0.0,-0.000501897
0.0,-0.000557835
0.0,-0.000456715
0.0,-0.000168098
0.0,-0.000417207
0.0,-0.000154095
0.0,-0.000302909
0.0,-0.000527407
0.0,-0.000237431
0.0,-0.000409969
0.0,-0.000227459
0.0,-0.000287221
0.0,-0.0016744
0.0,-0.000313811
0.0,-0.000261012
0.0,-0.000354785
0.0,-0.000244115
0.0,-0.000239519
0.0,-0.000464673
0.0,-0.000340623
0.0,-0.000238651
0.0,-0.000473225
0.0,-0.000295227
0.0,-0.000193406
0.0,-0.000380116
0.0,-0.000207084
0.0,-0.000320614
0.0,-0.000742554
0.0,-0.000249281
0.0,-0.0003284
0.0,-0.00042509
0.0,-0.000290354
0.0,-0.000762515
0.0,-0.000237468
0.0,-0.000263896
0.0,-0.000212481
0.0,-0.000259228
0.0,-0.00031628
0.0,-0.000315637
0.0,-0.000228666
0.0,-0.000248837
0.0,-0.000431422
0.0,-0.000225577
0.0,-0.000159518
0.0,-0.000346175
0.0,-0.000863048
0.0,-0.000280932
0.0,-0.000332294
0.0,-0.000289932
0.0,-0.000368549
0.0,-0.000299847
0.0,-0.000188468
0.0,-0.00318513
0.0,-0.000274356
0.0,-0.000366504
0.0,-0.000316575
0.0,-0.000212912
0.0,-0.000208492
0.0,-0.00059882
0.0,-0.000242094
0.0,-0.000397974
0.0,-0.000562337
0.0,-0.00051474
0.0,-0.00018143
0.0,-0.000731586
0.0,-0.000292762
0.0,-0.00035474
0.0,-0.00029109
0.0,-0.00152238
0.0,-0.000180205
0.0,-0.000710975
0.0005,-0.000476255
0.01,0.0344267
0.06,0.00170656
0.0833333,0.0138611